submission_id,QUD,RT,age,comments,correctness,education,endTime,expected,experiment_id,foil_type,g,gender,h,key1,key2,key_pressed,languages,option1,option2,participant_ID,picture,picture1,picture2,question,response,startDate,startTime,timeSpent,trial_name,trial_number
94,,5145,23,,NA,Abitur / High School,1616150851816,NA,1,NA,NA,female,NA,NA,NA,NA,german,left,right,NA,images/Hands.png,NA,NA,Which hand is your primary hand?,right,Fri Mar 19 2021 11:35:43 GMT+0100 (Mitteleuropäische Normalzeit),1616150143275,11.809016666666666,forced_choice_preQ,1
94,,4792,23,,NA,Abitur / High School,1616150851816,NA,1,NA,NA,female,NA,NA,NA,NA,german,Yes,No,NA,images/Fractals_pre_Q.png,NA,NA,Do you know or can you find a familiar idea behind these pictures?,Yes,Fri Mar 19 2021 11:35:43 GMT+0100 (Mitteleuropäische Normalzeit),1616150143275,11.809016666666666,forced_choice_preQ,2
94,,2294,23,,NA,Abitur / High School,1616150851816,NA,1,NA,NA,female,NA,NA,NA,NA,german,Yes,No,NA,images/question_mark_01.png,NA,NA,Have you ever heard or read about a <strong>FRACTAL</strong>?,Yes,Fri Mar 19 2021 11:35:43 GMT+0100 (Mitteleuropäische Normalzeit),1616150143275,11.809016666666666,forced_choice_preQ,3
94,NA,5191,23,,correct,Abitur / High School,1616150851816,right,1,NA,NA,female,NA,NA,NA,right,german,NA,NA,632348,NA,Quad_arrow_4_false_4.png,Quad_arrow_4.png,Which is the correct continuation?,NA,Fri Mar 19 2021 11:35:43 GMT+0100 (Mitteleuropäische Normalzeit),1616150143275,11.809016666666666,fractal_view_2D_TT,1
94,NA,5043,23,,correct,Abitur / High School,1616150851816,right,1,NA,NA,female,NA,NA,NA,right,german,NA,NA,632348,NA,Quad_square_4_iteration_3_false.png,Quad_square_4_iteration_3.png,Which is the correct continuation?,NA,Fri Mar 19 2021 11:35:43 GMT+0100 (Mitteleuropäische Normalzeit),1616150143275,11.809016666666666,fractal_view_2D_TT,2
94,NA,3406,23,,correct,Abitur / High School,1616150851816,left,1,iteration,NA,female,NA,NA,NA,left,german,NA,NA,632348,NA,Quad_arrow_3_iteration_3_false.png,Quad_arrow_3_iteration_3.png,Which is the correct continuation?,NA,Fri Mar 19 2021 11:35:43 GMT+0100 (Mitteleuropäische Normalzeit),1616150143275,11.809016666666666,fractal_view_2D,1
94,NA,3264,23,,correct,Abitur / High School,1616150851816,right,1,iteration,NA,female,NA,NA,NA,right,german,NA,NA,632348,NA,Quad_square_3_iteration_3.png,Quad_square_3_iteration_3_false.png,Which is the correct continuation?,NA,Fri Mar 19 2021 11:35:43 GMT+0100 (Mitteleuropäische Normalzeit),1616150143275,11.809016666666666,fractal_view_2D,2
94,NA,2807,23,,correct,Abitur / High School,1616150851816,right,1,iteration,NA,female,NA,NA,NA,right,german,NA,NA,632348,NA,Penta_circle_3_iteration_4.png,Penta_circle_3_iteration_4_false.png,Which is the correct continuation?,NA,Fri Mar 19 2021 11:35:43 GMT+0100 (Mitteleuropäische Normalzeit),1616150143275,11.809016666666666,fractal_view_2D,3
94,NA,3516,23,,correct,Abitur / High School,1616150851816,left,1,iteration,NA,female,NA,NA,NA,left,german,NA,NA,632348,NA,Tri_triangle_3_iteration_3_false.png,Tri_triangle_3_iteration_3.png,Which is the correct continuation?,NA,Fri Mar 19 2021 11:35:43 GMT+0100 (Mitteleuropäische Normalzeit),1616150143275,11.809016666666666,fractal_view_2D,4
94,NA,2954,23,,correct,Abitur / High School,1616150851816,left,1,NA,NA,female,NA,NA,NA,left,german,NA,NA,632348,NA,Penta_triangle_3_iteration_4.png,Penta_triangle_3_iteration_4_false.png,Which is the correct continuation?,NA,Fri Mar 19 2021 11:35:43 GMT+0100 (Mitteleuropäische Normalzeit),1616150143275,11.809016666666666,fractal_view_2D,5
94,NA,2242,23,,correct,Abitur / High School,1616150851816,left,1,iteration,NA,female,NA,NA,NA,left,german,NA,NA,632348,NA,Penta_square_3_iteration_3_false.png,Penta_square_3_iteration_3.png,Which is the correct continuation?,NA,Fri Mar 19 2021 11:35:43 GMT+0100 (Mitteleuropäische Normalzeit),1616150143275,11.809016666666666,fractal_view_2D,6
94,,2949,23,,correct,Abitur / High School,1616150851816,fractal,1,NA,fractal,female,non-fractal,g,h,g,german,NA,NA,NA,images/Generated_Pictures/Tri_square_3.png,NA,NA,Is this a fractal? - <strong>TEST</strong>,NA,Fri Mar 19 2021 11:35:43 GMT+0100 (Mitteleuropäische Normalzeit),1616150143275,11.809016666666666,key_press_testTrial,1
94,,2510,23,,incorrect,Abitur / High School,1616150851816,non-fractal,1,NA,fractal,female,non-fractal,g,h,g,german,NA,NA,NA,images/Generated_Pictures/Penta_square_3_false_3.png,NA,NA,Is this a fractal? - <strong>TEST</strong>,NA,Fri Mar 19 2021 11:35:43 GMT+0100 (Mitteleuropäische Normalzeit),1616150143275,11.809016666666666,key_press_testTrial,2
94,,7754,23,,correct,Abitur / High School,1616150851816,non-fractal,1,NA,fractal,female,non-fractal,g,h,h,german,NA,NA,NA,images/Generated_Pictures/Quad_square_4_false_4.png,NA,NA,Is this a fractal? - <strong>TEST</strong>,NA,Fri Mar 19 2021 11:35:43 GMT+0100 (Mitteleuropäische Normalzeit),1616150143275,11.809016666666666,key_press_testTrial,3
94,,2644,23,,incorrect,Abitur / High School,1616150851816,non-fractal,1,NA,fractal,female,non-fractal,g,h,g,german,NA,NA,NA,images/Generated_Pictures/Penta_square_3_false_2.png,NA,NA,Is this a fractal? - <strong>TEST</strong>,NA,Fri Mar 19 2021 11:35:43 GMT+0100 (Mitteleuropäische Normalzeit),1616150143275,11.809016666666666,key_press_testTrial,4
94,,2269,23,,correct,Abitur / High School,1616150851816,fractal,1,NA,fractal,female,non-fractal,g,h,g,german,NA,NA,NA,images/Generated_Pictures/Quad_square_3.png,NA,NA,Is this a fractal? - <strong>TEST</strong>,NA,Fri Mar 19 2021 11:35:43 GMT+0100 (Mitteleuropäische Normalzeit),1616150143275,11.809016666666666,key_press_testTrial,5
94,,2636,23,,correct,Abitur / High School,1616150851816,fractal,1,NA,fractal,female,non-fractal,g,h,g,german,NA,NA,NA,images/Generated_Pictures/Hexa_square_2.png,NA,NA,Is this a fractal? - <strong>TEST</strong>,NA,Fri Mar 19 2021 11:35:43 GMT+0100 (Mitteleuropäische Normalzeit),1616150143275,11.809016666666666,key_press_testTrial,6
94,,2122,23,,correct,Abitur / High School,1616150851816,fractal,1,NA,fractal,female,non-fractal,g,h,g,german,NA,NA,NA,images/Generated_Pictures/Quad_square_3.png,NA,NA,Is this a fractal? - <strong>TEST</strong>,NA,Fri Mar 19 2021 11:35:43 GMT+0100 (Mitteleuropäische Normalzeit),1616150143275,11.809016666666666,key_press_testTrial,7
94,,2764,23,,incorrect,Abitur / High School,1616150851816,fractal,1,NA,fractal,female,non-fractal,g,h,h,german,NA,NA,NA,images/Generated_Pictures/Tri_square_4.png,NA,NA,Is this a fractal? - <strong>TEST</strong>,NA,Fri Mar 19 2021 11:35:43 GMT+0100 (Mitteleuropäische Normalzeit),1616150143275,11.809016666666666,key_press_testTrial,8
94,,1758,23,,correct,Abitur / High School,1616150851816,fractal,1,NA,fractal,female,non-fractal,g,h,g,german,NA,NA,NA,images/Generated_Pictures/Tri_triangle_3.png,NA,NA,Is this a fractal?,NA,Fri Mar 19 2021 11:35:43 GMT+0100 (Mitteleuropäische Normalzeit),1616150143275,11.809016666666666,key_press_first_one_comp_3,1
94,,2634,23,,correct,Abitur / High School,1616150851816,fractal,1,NA,fractal,female,non-fractal,g,h,g,german,NA,NA,NA,images/Generated_Pictures/Hexa_triangle_3.png,NA,NA,Is this a fractal?,NA,Fri Mar 19 2021 11:35:43 GMT+0100 (Mitteleuropäische Normalzeit),1616150143275,11.809016666666666,key_press_first_one_comp_3,2
94,,2275,23,,incorrect,Abitur / High School,1616150851816,non-fractal,1,NA,fractal,female,non-fractal,g,h,g,german,NA,NA,NA,images/Generated_Pictures/Penta_circle_3_false_2.png,NA,NA,Is this a fractal?,NA,Fri Mar 19 2021 11:35:43 GMT+0100 (Mitteleuropäische Normalzeit),1616150143275,11.809016666666666,key_press_first_two_comp_3,1
94,,2134,23,,correct,Abitur / High School,1616150851816,fractal,1,NA,fractal,female,non-fractal,g,h,g,german,NA,NA,NA,images/Generated_Pictures/Tri_circle_3.png,NA,NA,Is this a fractal?,NA,Fri Mar 19 2021 11:35:43 GMT+0100 (Mitteleuropäische Normalzeit),1616150143275,11.809016666666666,key_press_first_one_comp_3,3
94,,2074,23,,correct,Abitur / High School,1616150851816,fractal,1,NA,fractal,female,non-fractal,g,h,g,german,NA,NA,NA,images/Generated_Pictures/Penta_triangle_3.png,NA,NA,Is this a fractal?,NA,Fri Mar 19 2021 11:35:43 GMT+0100 (Mitteleuropäische Normalzeit),1616150143275,11.809016666666666,key_press_first_one_comp_3,4
94,,2162,23,,incorrect,Abitur / High School,1616150851816,non-fractal,1,NA,fractal,female,non-fractal,g,h,g,german,NA,NA,NA,images/Generated_Pictures/Hexa_circle_3_false_2.png,NA,NA,Is this a fractal?,NA,Fri Mar 19 2021 11:35:43 GMT+0100 (Mitteleuropäische Normalzeit),1616150143275,11.809016666666666,key_press_first_two_comp_3,2
94,,1885,23,,correct,Abitur / High School,1616150851816,fractal,1,NA,fractal,female,non-fractal,g,h,g,german,NA,NA,NA,images/Generated_Pictures/Penta_triangle_3.png,NA,NA,Is this a fractal?,NA,Fri Mar 19 2021 11:35:43 GMT+0100 (Mitteleuropäische Normalzeit),1616150143275,11.809016666666666,key_press_first_one_comp_3,5
94,,2105,23,,correct,Abitur / High School,1616150851816,fractal,1,NA,fractal,female,non-fractal,g,h,g,german,NA,NA,NA,images/Generated_Pictures/Quad_circle_3.png,NA,NA,Is this a fractal?,NA,Fri Mar 19 2021 11:35:43 GMT+0100 (Mitteleuropäische Normalzeit),1616150143275,11.809016666666666,key_press_first_one_comp_3,6
94,,2849,23,,incorrect,Abitur / High School,1616150851816,non-fractal,1,NA,fractal,female,non-fractal,g,h,g,german,NA,NA,NA,images/Generated_Pictures/Hexa_arrow_3_false_2.png,NA,NA,Is this a fractal?,NA,Fri Mar 19 2021 11:35:43 GMT+0100 (Mitteleuropäische Normalzeit),1616150143275,11.809016666666666,key_press_first_two_comp_3,3
94,,2095,23,,correct,Abitur / High School,1616150851816,fractal,1,NA,fractal,female,non-fractal,g,h,g,german,NA,NA,NA,images/Generated_Pictures/Quad_triangle_3.png,NA,NA,Is this a fractal?,NA,Fri Mar 19 2021 11:35:43 GMT+0100 (Mitteleuropäische Normalzeit),1616150143275,11.809016666666666,key_press_first_one_comp_3,7
94,,2504,23,,correct,Abitur / High School,1616150851816,fractal,1,NA,fractal,female,non-fractal,g,h,g,german,NA,NA,NA,images/Generated_Pictures/Hexa_arrow_3.png,NA,NA,Is this a fractal?,NA,Fri Mar 19 2021 11:35:43 GMT+0100 (Mitteleuropäische Normalzeit),1616150143275,11.809016666666666,key_press_first_one_comp_3,8
94,,8504,23,,incorrect,Abitur / High School,1616150851816,non-fractal,1,NA,fractal,female,non-fractal,g,h,g,german,NA,NA,NA,images/Generated_Pictures/Hexa_arrow_3_false_3.png,NA,NA,Is this a fractal?,NA,Fri Mar 19 2021 11:35:43 GMT+0100 (Mitteleuropäische Normalzeit),1616150143275,11.809016666666666,key_press_first_two_comp_3,4
94,,2093,23,,correct,Abitur / High School,1616150851816,fractal,1,NA,fractal,female,non-fractal,g,h,g,german,NA,NA,NA,images/Generated_Pictures/Tri_triangle_3.png,NA,NA,Is this a fractal?,NA,Fri Mar 19 2021 11:35:43 GMT+0100 (Mitteleuropäische Normalzeit),1616150143275,11.809016666666666,key_press_first_one_comp_3,9
94,,1749,23,,correct,Abitur / High School,1616150851816,fractal,1,NA,fractal,female,non-fractal,g,h,g,german,NA,NA,NA,images/Generated_Pictures/Tri_square_3.png,NA,NA,Is this a fractal?,NA,Fri Mar 19 2021 11:35:43 GMT+0100 (Mitteleuropäische Normalzeit),1616150143275,11.809016666666666,key_press_first_one_comp_3,10
94,,2435,23,,correct,Abitur / High School,1616150851816,non-fractal,1,NA,fractal,female,non-fractal,g,h,h,german,NA,NA,NA,images/Generated_Pictures/Hexa_square_3_false_3.png,NA,NA,Is this a fractal?,NA,Fri Mar 19 2021 11:35:43 GMT+0100 (Mitteleuropäische Normalzeit),1616150143275,11.809016666666666,key_press_first_two_comp_3,5
94,,4481,23,,correct,Abitur / High School,1616150851816,fractal,1,NA,fractal,female,non-fractal,g,h,g,german,NA,NA,NA,images/Generated_Pictures/Tri_triangle_4.png,NA,NA,Is this a fractal?,NA,Fri Mar 19 2021 11:35:43 GMT+0100 (Mitteleuropäische Normalzeit),1616150143275,11.809016666666666,key_press_first_one_comp_4,1
94,,3441,23,,correct,Abitur / High School,1616150851816,fractal,1,NA,fractal,female,non-fractal,g,h,g,german,NA,NA,NA,images/Generated_Pictures/Quad_square_4.png,NA,NA,Is this a fractal?,NA,Fri Mar 19 2021 11:35:43 GMT+0100 (Mitteleuropäische Normalzeit),1616150143275,11.809016666666666,key_press_first_one_comp_4,2
94,,2115,23,,incorrect,Abitur / High School,1616150851816,fractal,1,NA,fractal,female,non-fractal,g,h,h,german,NA,NA,NA,images/Generated_Pictures/Tri_square_4.png,NA,NA,Is this a fractal?,NA,Fri Mar 19 2021 11:35:43 GMT+0100 (Mitteleuropäische Normalzeit),1616150143275,11.809016666666666,key_press_first_one_comp_4,3
94,,2118,23,,correct,Abitur / High School,1616150851816,fractal,1,NA,fractal,female,non-fractal,g,h,g,german,NA,NA,NA,images/Generated_Pictures/Quad_circle_2.png,NA,NA,Is this a fractal?,NA,Fri Mar 19 2021 11:35:43 GMT+0100 (Mitteleuropäische Normalzeit),1616150143275,11.809016666666666,key_press_first_one_comp_4,4
94,,2479,23,,correct,Abitur / High School,1616150851816,fractal,1,NA,fractal,female,non-fractal,g,h,g,german,NA,NA,NA,images/Generated_Pictures/Quad_arrow_4.png,NA,NA,Is this a fractal?,NA,Fri Mar 19 2021 11:35:43 GMT+0100 (Mitteleuropäische Normalzeit),1616150143275,11.809016666666666,key_press_first_one_comp_4,5
94,,2333,23,,correct,Abitur / High School,1616150851816,fractal,1,NA,fractal,female,non-fractal,g,h,g,german,NA,NA,NA,images/Generated_Pictures/Quad_arrow_4.png,NA,NA,Is this a fractal?,NA,Fri Mar 19 2021 11:35:43 GMT+0100 (Mitteleuropäische Normalzeit),1616150143275,11.809016666666666,key_press_first_one_comp_4,6
94,,2688,23,,correct,Abitur / High School,1616150851816,non-fractal,1,NA,fractal,female,non-fractal,g,h,h,german,NA,NA,NA,images/Generated_Pictures/Quad_arrow_4_false_3.png,NA,NA,Is this a fractal?,NA,Fri Mar 19 2021 11:35:43 GMT+0100 (Mitteleuropäische Normalzeit),1616150143275,11.809016666666666,key_press_first_two_comp_4,1
94,,2250,23,,correct,Abitur / High School,1616150851816,fractal,1,NA,fractal,female,non-fractal,g,h,g,german,NA,NA,NA,images/Generated_Pictures/Quad_square_4.png,NA,NA,Is this a fractal?,NA,Fri Mar 19 2021 11:35:43 GMT+0100 (Mitteleuropäische Normalzeit),1616150143275,11.809016666666666,key_press_first_one_comp_4,7
94,,2118,23,,correct,Abitur / High School,1616150851816,fractal,1,NA,fractal,female,non-fractal,g,h,g,german,NA,NA,NA,images/Generated_Pictures/Tri_triangle_4.png,NA,NA,Is this a fractal?,NA,Fri Mar 19 2021 11:35:43 GMT+0100 (Mitteleuropäische Normalzeit),1616150143275,11.809016666666666,key_press_first_one_comp_4,8
94,,2297,23,,correct,Abitur / High School,1616150851816,fractal,1,NA,fractal,female,non-fractal,g,h,g,german,NA,NA,NA,images/Generated_Pictures/Quad_circle_4.png,NA,NA,Is this a fractal?,NA,Fri Mar 19 2021 11:35:43 GMT+0100 (Mitteleuropäische Normalzeit),1616150143275,11.809016666666666,key_press_first_one_comp_4,9
94,,2186,23,,correct,Abitur / High School,1616150851816,fractal,1,NA,fractal,female,non-fractal,g,h,g,german,NA,NA,NA,images/Generated_Pictures/Quad_triangle_4.png,NA,NA,Is this a fractal?,NA,Fri Mar 19 2021 11:35:43 GMT+0100 (Mitteleuropäische Normalzeit),1616150143275,11.809016666666666,key_press_first_one_comp_4,10
94,,1931,23,,incorrect,Abitur / High School,1616150851816,fractal,1,NA,fractal,female,non-fractal,g,h,h,german,NA,NA,NA,images/Generated_Pictures/Tri_square_4.png,NA,NA,Is this a fractal?,NA,Fri Mar 19 2021 11:35:43 GMT+0100 (Mitteleuropäische Normalzeit),1616150143275,11.809016666666666,key_press_first_one_comp_4,11
94,,2389,23,,correct,Abitur / High School,1616150851816,fractal,1,NA,fractal,female,non-fractal,g,h,g,german,NA,NA,NA,images/Generated_Pictures/Quad_triangle_4.png,NA,NA,Is this a fractal?,NA,Fri Mar 19 2021 11:35:43 GMT+0100 (Mitteleuropäische Normalzeit),1616150143275,11.809016666666666,key_press_first_one_comp_4,12
94,,2022,23,,incorrect,Abitur / High School,1616150851816,non-fractal,1,NA,fractal,female,non-fractal,g,h,g,german,NA,NA,NA,images/Generated_Pictures/Quad_square_4_false_4.png,NA,NA,Is this a fractal?,NA,Fri Mar 19 2021 11:35:43 GMT+0100 (Mitteleuropäische Normalzeit),1616150143275,11.809016666666666,key_press_first_two_comp_4,2
94,,1728,23,,correct,Abitur / High School,1616150851816,fractal,1,NA,fractal,female,non-fractal,g,h,g,german,NA,NA,NA,images/Generated_Pictures/Quad_arrow_4.png,NA,NA,Is this a fractal?,NA,Fri Mar 19 2021 11:35:43 GMT+0100 (Mitteleuropäische Normalzeit),1616150143275,11.809016666666666,key_press_first_one_comp_4,13
94,,2703,23,,correct,Abitur / High School,1616150851816,fractal,1,NA,fractal,female,non-fractal,g,h,g,german,NA,NA,NA,images/Generated_Pictures/Quad_arrow_4.png,NA,NA,Is this a fractal?,NA,Fri Mar 19 2021 11:35:43 GMT+0100 (Mitteleuropäische Normalzeit),1616150143275,11.809016666666666,key_press_first_one_comp_4,14
94,,1835,23,,correct,Abitur / High School,1616150851816,fractal,1,NA,fractal,female,non-fractal,g,h,g,german,NA,NA,NA,images/Generated_Pictures/Tri_triangle_4.png,NA,NA,Is this a fractal?,NA,Fri Mar 19 2021 11:35:43 GMT+0100 (Mitteleuropäische Normalzeit),1616150143275,11.809016666666666,key_press_first_one_comp_4,15
94,,1875,23,,correct,Abitur / High School,1616150851816,fractal,1,NA,fractal,female,non-fractal,g,h,g,german,NA,NA,NA,images/Generated_Pictures/Tri_triangle_4.png,NA,NA,Is this a fractal?,NA,Fri Mar 19 2021 11:35:43 GMT+0100 (Mitteleuropäische Normalzeit),1616150143275,11.809016666666666,key_press_first_one_comp_4,16
94,,2841,23,,correct,Abitur / High School,1616150851816,fractal,1,NA,fractal,female,non-fractal,g,h,g,german,NA,NA,NA,images/Generated_Pictures/Tri_circle_4.png,NA,NA,Is this a fractal?,NA,Fri Mar 19 2021 11:35:43 GMT+0100 (Mitteleuropäische Normalzeit),1616150143275,11.809016666666666,key_press_first_one_comp_4,17
94,,1786,23,,correct,Abitur / High School,1616150851816,fractal,1,NA,fractal,female,non-fractal,g,h,g,german,NA,NA,NA,images/Generated_Pictures/Quad_circle_2.png,NA,NA,Is this a fractal?,NA,Fri Mar 19 2021 11:35:43 GMT+0100 (Mitteleuropäische Normalzeit),1616150143275,11.809016666666666,key_press_first_one_comp_4,18
94,,7337,23,,correct,Abitur / High School,1616150851816,non-fractal,1,NA,fractal,female,non-fractal,g,h,h,german,NA,NA,NA,images/Generated_Pictures/Quad_square_4_false_3.png,NA,NA,Is this a fractal?,NA,Fri Mar 19 2021 11:35:43 GMT+0100 (Mitteleuropäische Normalzeit),1616150143275,11.809016666666666,key_press_first_two_comp_4,3
94,,1932,23,,correct,Abitur / High School,1616150851816,fractal,1,NA,fractal,female,non-fractal,g,h,g,german,NA,NA,NA,images/Generated_Pictures/Tri_circle_4.png,NA,NA,Is this a fractal?,NA,Fri Mar 19 2021 11:35:43 GMT+0100 (Mitteleuropäische Normalzeit),1616150143275,11.809016666666666,key_press_first_one_comp_4,19
94,,2220,23,,correct,Abitur / High School,1616150851816,fractal,1,NA,fractal,female,non-fractal,g,h,g,german,NA,NA,NA,images/Generated_Pictures/Tri_arrow_4.png,NA,NA,Is this a fractal?,NA,Fri Mar 19 2021 11:35:43 GMT+0100 (Mitteleuropäische Normalzeit),1616150143275,11.809016666666666,key_press_first_one_comp_4,20
94,,1935,23,,correct,Abitur / High School,1616150851816,fractal,1,NA,fractal,female,non-fractal,g,h,g,german,NA,NA,NA,images/Generated_Pictures/Quad_triangle_4.png,NA,NA,Is this a fractal?,NA,Fri Mar 19 2021 11:35:43 GMT+0100 (Mitteleuropäische Normalzeit),1616150143275,11.809016666666666,key_press_first_one_comp_4,21
94,,1768,23,,correct,Abitur / High School,1616150851816,fractal,1,NA,fractal,female,non-fractal,g,h,g,german,NA,NA,NA,images/Generated_Pictures/Tri_triangle_4.png,NA,NA,Is this a fractal?,NA,Fri Mar 19 2021 11:35:43 GMT+0100 (Mitteleuropäische Normalzeit),1616150143275,11.809016666666666,key_press_first_one_comp_4,22
94,,1783,23,,correct,Abitur / High School,1616150851816,fractal,1,NA,fractal,female,non-fractal,g,h,g,german,NA,NA,NA,images/Generated_Pictures/Tri_arrow_4.png,NA,NA,Is this a fractal?,NA,Fri Mar 19 2021 11:35:43 GMT+0100 (Mitteleuropäische Normalzeit),1616150143275,11.809016666666666,key_press_first_one_comp_4,23
94,,2180,23,,correct,Abitur / High School,1616150851816,fractal,1,NA,fractal,female,non-fractal,g,h,g,german,NA,NA,NA,images/Generated_Pictures/Quad_square_4.png,NA,NA,Is this a fractal?,NA,Fri Mar 19 2021 11:35:43 GMT+0100 (Mitteleuropäische Normalzeit),1616150143275,11.809016666666666,key_press_first_one_comp_4,24
94,,6838,23,,correct,Abitur / High School,1616150851816,non-fractal,1,NA,fractal,female,non-fractal,g,h,h,german,NA,NA,NA,images/Generated_Pictures/Tri_arrow_4_false_4.png,NA,NA,Is this a fractal?,NA,Fri Mar 19 2021 11:35:43 GMT+0100 (Mitteleuropäische Normalzeit),1616150143275,11.809016666666666,key_press_first_two_comp_4,4
94,,2009,23,,incorrect,Abitur / High School,1616150851816,fractal,1,NA,fractal,female,non-fractal,g,h,h,german,NA,NA,NA,images/Generated_Pictures/Tri_square_4.png,NA,NA,Is this a fractal?,NA,Fri Mar 19 2021 11:35:43 GMT+0100 (Mitteleuropäische Normalzeit),1616150143275,11.809016666666666,key_press_first_one_comp_4,25
94,,1760,23,,correct,Abitur / High School,1616150851816,fractal,1,NA,fractal,female,non-fractal,g,h,g,german,NA,NA,NA,images/Generated_Pictures/Quad_arrow_4.png,NA,NA,Is this a fractal?,NA,Fri Mar 19 2021 11:35:43 GMT+0100 (Mitteleuropäische Normalzeit),1616150143275,11.809016666666666,key_press_first_one_comp_4,26
94,,1624,23,,correct,Abitur / High School,1616150851816,fractal,1,NA,fractal,female,non-fractal,g,h,g,german,NA,NA,NA,images/Generated_Pictures/Quad_circle_2.png,NA,NA,Is this a fractal?,NA,Fri Mar 19 2021 11:35:43 GMT+0100 (Mitteleuropäische Normalzeit),1616150143275,11.809016666666666,key_press_first_one_comp_4,27
94,,1549,23,,correct,Abitur / High School,1616150851816,fractal,1,NA,fractal,female,non-fractal,g,h,g,german,NA,NA,NA,images/Generated_Pictures/Tri_arrow_4.png,NA,NA,Is this a fractal?,NA,Fri Mar 19 2021 11:35:43 GMT+0100 (Mitteleuropäische Normalzeit),1616150143275,11.809016666666666,key_press_first_one_comp_4,28
94,,1898,23,,correct,Abitur / High School,1616150851816,fractal,1,NA,fractal,female,non-fractal,g,h,g,german,NA,NA,NA,images/Generated_Pictures/Quad_square_4.png,NA,NA,Is this a fractal?,NA,Fri Mar 19 2021 11:35:43 GMT+0100 (Mitteleuropäische Normalzeit),1616150143275,11.809016666666666,key_press_first_one_comp_4,29
94,,1785,23,,correct,Abitur / High School,1616150851816,fractal,1,NA,fractal,female,non-fractal,g,h,g,german,NA,NA,NA,images/Generated_Pictures/Quad_circle_4.png,NA,NA,Is this a fractal?,NA,Fri Mar 19 2021 11:35:43 GMT+0100 (Mitteleuropäische Normalzeit),1616150143275,11.809016666666666,key_press_first_one_comp_4,30
94,,3295,23,,incorrect,Abitur / High School,1616150851816,non-fractal,1,NA,fractal,female,non-fractal,g,h,g,german,NA,NA,NA,images/Generated_Pictures/Quad_triangle_4_false_4.png,NA,NA,Is this a fractal?,NA,Fri Mar 19 2021 11:35:43 GMT+0100 (Mitteleuropäische Normalzeit),1616150143275,11.809016666666666,key_press_first_two_comp_4,5
94,NA,2561,23,,correct,Abitur / High School,1616150851816,right,1,turn,NA,female,NA,NA,NA,right,german,NA,NA,632348,NA,Tri_triangle_3_false_3.png,Tri_triangle_3.png,Which is the correct continuation?,NA,Fri Mar 19 2021 11:35:43 GMT+0100 (Mitteleuropäische Normalzeit),1616150143275,11.809016666666666,fractal_view_2D_fractal,1
94,NA,2760,23,,correct,Abitur / High School,1616150851816,left,1,NA,NA,female,NA,NA,NA,left,german,NA,NA,632348,NA,Tri_circle_4.png,Tri_circle_4_false_4.png,Which is the correct continuation?,NA,Fri Mar 19 2021 11:35:43 GMT+0100 (Mitteleuropäische Normalzeit),1616150143275,11.809016666666666,fractal_view_2D_fractal,2
94,NA,2491,23,,correct,Abitur / High School,1616150851816,right,1,turn,NA,female,NA,NA,NA,right,german,NA,NA,632348,NA,Quad_triangle_3_false_3.png,Quad_triangle_3.png,Which is the correct continuation?,NA,Fri Mar 19 2021 11:35:43 GMT+0100 (Mitteleuropäische Normalzeit),1616150143275,11.809016666666666,fractal_view_2D_fractal,3
94,NA,4085,23,,correct,Abitur / High School,1616150851816,left,1,NA,NA,female,NA,NA,NA,left,german,NA,NA,632348,NA,Quad_square_4.png,Quad_square_4_false_4.png,Which is the correct continuation?,NA,Fri Mar 19 2021 11:35:43 GMT+0100 (Mitteleuropäische Normalzeit),1616150143275,11.809016666666666,fractal_view_2D_fractal,4
94,NA,2550,23,,correct,Abitur / High School,1616150851816,left,1,turn,NA,female,NA,NA,NA,left,german,NA,NA,632348,NA,Quad_square_4.png,Quad_square_4_false_3.png,Which is the correct continuation?,NA,Fri Mar 19 2021 11:35:43 GMT+0100 (Mitteleuropäische Normalzeit),1616150143275,11.809016666666666,fractal_view_2D_fractal,5
94,NA,3263,23,,correct,Abitur / High School,1616150851816,left,1,turn,NA,female,NA,NA,NA,left,german,NA,NA,632348,NA,Quad_square_3.png,Quad_square_3_false_3.png,Which is the correct continuation?,NA,Fri Mar 19 2021 11:35:43 GMT+0100 (Mitteleuropäische Normalzeit),1616150143275,11.809016666666666,fractal_view_2D_fractal,6
94,,4587,23,,incorrect,Abitur / High School,1616150851816,non-fractal,1,NA,fractal,female,non-fractal,g,h,g,german,NA,NA,NA,images/Generated_Pictures/Quad_arrow_4_false_4.png,NA,NA,Is this a fractal?,NA,Fri Mar 19 2021 11:35:43 GMT+0100 (Mitteleuropäische Normalzeit),1616150143275,11.809016666666666,key_press_second_one_comp_4,1
94,,4576,23,,correct,Abitur / High School,1616150851816,non-fractal,1,NA,fractal,female,non-fractal,g,h,h,german,NA,NA,NA,images/Generated_Pictures/Tri_arrow_4_false_4.png,NA,NA,Is this a fractal?,NA,Fri Mar 19 2021 11:35:43 GMT+0100 (Mitteleuropäische Normalzeit),1616150143275,11.809016666666666,key_press_second_one_comp_4,2
94,,2443,23,,correct,Abitur / High School,1616150851816,non-fractal,1,NA,fractal,female,non-fractal,g,h,h,german,NA,NA,NA,images/Generated_Pictures/Tri_square_4_false_4.png,NA,NA,Is this a fractal?,NA,Fri Mar 19 2021 11:35:43 GMT+0100 (Mitteleuropäische Normalzeit),1616150143275,11.809016666666666,key_press_second_one_comp_4,3
94,,2818,23,,incorrect,Abitur / High School,1616150851816,non-fractal,1,NA,fractal,female,non-fractal,g,h,g,german,NA,NA,NA,images/Generated_Pictures/Quad_triangle_4_false_4.png,NA,NA,Is this a fractal?,NA,Fri Mar 19 2021 11:35:43 GMT+0100 (Mitteleuropäische Normalzeit),1616150143275,11.809016666666666,key_press_second_one_comp_4,4
94,,4236,23,,correct,Abitur / High School,1616150851816,non-fractal,1,NA,fractal,female,non-fractal,g,h,h,german,NA,NA,NA,images/Generated_Pictures/Tri_triangle_4_false_4.png,NA,NA,Is this a fractal?,NA,Fri Mar 19 2021 11:35:43 GMT+0100 (Mitteleuropäische Normalzeit),1616150143275,11.809016666666666,key_press_second_one_comp_4,5
94,,7297,23,,incorrect,Abitur / High School,1616150851816,non-fractal,1,NA,fractal,female,non-fractal,g,h,g,german,NA,NA,NA,images/Generated_Pictures/Tri_circle_4_false_3.png,NA,NA,Is this a fractal?,NA,Fri Mar 19 2021 11:35:43 GMT+0100 (Mitteleuropäische Normalzeit),1616150143275,11.809016666666666,key_press_second_one_comp_4,6
94,,2260,23,,incorrect,Abitur / High School,1616150851816,non-fractal,1,NA,fractal,female,non-fractal,g,h,g,german,NA,NA,NA,images/Generated_Pictures/Tri_triangle_4_false_3.png,NA,NA,Is this a fractal?,NA,Fri Mar 19 2021 11:35:43 GMT+0100 (Mitteleuropäische Normalzeit),1616150143275,11.809016666666666,key_press_second_one_comp_4,7
94,,2185,23,,incorrect,Abitur / High School,1616150851816,fractal,1,NA,fractal,female,non-fractal,g,h,h,german,NA,NA,NA,images/Generated_Pictures/Tri_square_4.png,NA,NA,Is this a fractal?,NA,Fri Mar 19 2021 11:35:43 GMT+0100 (Mitteleuropäische Normalzeit),1616150143275,11.809016666666666,key_press_second,1
94,,3019,23,,correct,Abitur / High School,1616150851816,non-fractal,1,NA,fractal,female,non-fractal,g,h,h,german,NA,NA,NA,images/Generated_Pictures/Tri_square_4_false_4.png,NA,NA,Is this a fractal?,NA,Fri Mar 19 2021 11:35:43 GMT+0100 (Mitteleuropäische Normalzeit),1616150143275,11.809016666666666,key_press_second_one_comp_4,8
94,,2679,23,,incorrect,Abitur / High School,1616150851816,non-fractal,1,NA,fractal,female,non-fractal,g,h,g,german,NA,NA,NA,images/Generated_Pictures/Tri_circle_4_false_3.png,NA,NA,Is this a fractal?,NA,Fri Mar 19 2021 11:35:43 GMT+0100 (Mitteleuropäische Normalzeit),1616150143275,11.809016666666666,key_press_second_one_comp_4,9
94,,2550,23,,incorrect,Abitur / High School,1616150851816,non-fractal,1,NA,fractal,female,non-fractal,g,h,g,german,NA,NA,NA,images/Generated_Pictures/Quad_square_4_false_3.png,NA,NA,Is this a fractal?,NA,Fri Mar 19 2021 11:35:43 GMT+0100 (Mitteleuropäische Normalzeit),1616150143275,11.809016666666666,key_press_second_one_comp_4,10
94,,3032,23,,incorrect,Abitur / High School,1616150851816,non-fractal,1,NA,fractal,female,non-fractal,g,h,g,german,NA,NA,NA,images/Generated_Pictures/Tri_circle_4_false_3.png,NA,NA,Is this a fractal?,NA,Fri Mar 19 2021 11:35:43 GMT+0100 (Mitteleuropäische Normalzeit),1616150143275,11.809016666666666,key_press_second_one_comp_4,11
94,,2198,23,,incorrect,Abitur / High School,1616150851816,non-fractal,1,NA,fractal,female,non-fractal,g,h,g,german,NA,NA,NA,images/Generated_Pictures/Quad_triangle_4_false_4.png,NA,NA,Is this a fractal?,NA,Fri Mar 19 2021 11:35:43 GMT+0100 (Mitteleuropäische Normalzeit),1616150143275,11.809016666666666,key_press_second_one_comp_4,12
94,,1757,23,,incorrect,Abitur / High School,1616150851816,non-fractal,1,NA,fractal,female,non-fractal,g,h,g,german,NA,NA,NA,images/Generated_Pictures/Quad_square_4_false_3.png,NA,NA,Is this a fractal?,NA,Fri Mar 19 2021 11:35:43 GMT+0100 (Mitteleuropäische Normalzeit),1616150143275,11.809016666666666,key_press_second_one_comp_4,13
94,,2952,23,,incorrect,Abitur / High School,1616150851816,non-fractal,1,NA,fractal,female,non-fractal,g,h,g,german,NA,NA,NA,images/Generated_Pictures/Tri_triangle_4_false_3.png,NA,NA,Is this a fractal?,NA,Fri Mar 19 2021 11:35:43 GMT+0100 (Mitteleuropäische Normalzeit),1616150143275,11.809016666666666,key_press_second_one_comp_4,14
94,,2025,23,,correct,Abitur / High School,1616150851816,fractal,1,NA,fractal,female,non-fractal,g,h,g,german,NA,NA,NA,images/Generated_Pictures/Quad_square_4.png,NA,NA,Is this a fractal?,NA,Fri Mar 19 2021 11:35:43 GMT+0100 (Mitteleuropäische Normalzeit),1616150143275,11.809016666666666,key_press_second,2
94,,2293,23,,correct,Abitur / High School,1616150851816,non-fractal,1,NA,fractal,female,non-fractal,g,h,h,german,NA,NA,NA,images/Generated_Pictures/Quad_square_4_false_4.png,NA,NA,Is this a fractal?,NA,Fri Mar 19 2021 11:35:43 GMT+0100 (Mitteleuropäische Normalzeit),1616150143275,11.809016666666666,key_press_second_one_comp_4,15
94,,4242,23,,correct,Abitur / High School,1616150851816,non-fractal,1,NA,fractal,female,non-fractal,g,h,h,german,NA,NA,NA,images/Generated_Pictures/Tri_triangle_4_false_4.png,NA,NA,Is this a fractal?,NA,Fri Mar 19 2021 11:35:43 GMT+0100 (Mitteleuropäische Normalzeit),1616150143275,11.809016666666666,key_press_second_one_comp_4,16
94,,2778,23,,correct,Abitur / High School,1616150851816,non-fractal,1,NA,fractal,female,non-fractal,g,h,h,german,NA,NA,NA,images/Generated_Pictures/Tri_triangle_4_false_4.png,NA,NA,Is this a fractal?,NA,Fri Mar 19 2021 11:35:43 GMT+0100 (Mitteleuropäische Normalzeit),1616150143275,11.809016666666666,key_press_second_one_comp_4,17
94,,1966,23,,correct,Abitur / High School,1616150851816,non-fractal,1,NA,fractal,female,non-fractal,g,h,h,german,NA,NA,NA,images/Generated_Pictures/Tri_triangle_4_false_4.png,NA,NA,Is this a fractal?,NA,Fri Mar 19 2021 11:35:43 GMT+0100 (Mitteleuropäische Normalzeit),1616150143275,11.809016666666666,key_press_second_one_comp_4,18
94,,2514,23,,incorrect,Abitur / High School,1616150851816,non-fractal,1,NA,fractal,female,non-fractal,g,h,g,german,NA,NA,NA,images/Generated_Pictures/Tri_arrow_4_false_3.png,NA,NA,Is this a fractal?,NA,Fri Mar 19 2021 11:35:43 GMT+0100 (Mitteleuropäische Normalzeit),1616150143275,11.809016666666666,key_press_second_one_comp_4,19
94,,2217,23,,incorrect,Abitur / High School,1616150851816,non-fractal,1,NA,fractal,female,non-fractal,g,h,g,german,NA,NA,NA,images/Generated_Pictures/Tri_triangle_4_false_3.png,NA,NA,Is this a fractal?,NA,Fri Mar 19 2021 11:35:43 GMT+0100 (Mitteleuropäische Normalzeit),1616150143275,11.809016666666666,key_press_second_one_comp_4,20
94,,4272,23,,incorrect,Abitur / High School,1616150851816,non-fractal,1,NA,fractal,female,non-fractal,g,h,g,german,NA,NA,NA,images/Generated_Pictures/Quad_arrow_4_false_3.png,NA,NA,Is this a fractal?,NA,Fri Mar 19 2021 11:35:43 GMT+0100 (Mitteleuropäische Normalzeit),1616150143275,11.809016666666666,key_press_second_one_comp_4,21
94,,2125,23,,correct,Abitur / High School,1616150851816,fractal,1,NA,fractal,female,non-fractal,g,h,g,german,NA,NA,NA,images/Generated_Pictures/Quad_circle_4.png,NA,NA,Is this a fractal?,NA,Fri Mar 19 2021 11:35:43 GMT+0100 (Mitteleuropäische Normalzeit),1616150143275,11.809016666666666,key_press_second,3
94,,2228,23,,incorrect,Abitur / High School,1616150851816,non-fractal,1,NA,fractal,female,non-fractal,g,h,g,german,NA,NA,NA,images/Generated_Pictures/Quad_arrow_4_false_3.png,NA,NA,Is this a fractal?,NA,Fri Mar 19 2021 11:35:43 GMT+0100 (Mitteleuropäische Normalzeit),1616150143275,11.809016666666666,key_press_second_one_comp_4,22
94,,2284,23,,incorrect,Abitur / High School,1616150851816,non-fractal,1,NA,fractal,female,non-fractal,g,h,g,german,NA,NA,NA,images/Generated_Pictures/Quad_square_4_false_4.png,NA,NA,Is this a fractal?,NA,Fri Mar 19 2021 11:35:43 GMT+0100 (Mitteleuropäische Normalzeit),1616150143275,11.809016666666666,key_press_second_one_comp_4,23
94,,4174,23,,correct,Abitur / High School,1616150851816,non-fractal,1,NA,fractal,female,non-fractal,g,h,h,german,NA,NA,NA,images/Generated_Pictures/Tri_square_4_false_3.png,NA,NA,Is this a fractal?,NA,Fri Mar 19 2021 11:35:43 GMT+0100 (Mitteleuropäische Normalzeit),1616150143275,11.809016666666666,key_press_second_one_comp_4,24
94,,4507,23,,incorrect,Abitur / High School,1616150851816,non-fractal,1,NA,fractal,female,non-fractal,g,h,g,german,NA,NA,NA,images/Generated_Pictures/Tri_arrow_4_false_4.png,NA,NA,Is this a fractal?,NA,Fri Mar 19 2021 11:35:43 GMT+0100 (Mitteleuropäische Normalzeit),1616150143275,11.809016666666666,key_press_second_one_comp_4,25
94,,1786,23,,correct,Abitur / High School,1616150851816,non-fractal,1,NA,fractal,female,non-fractal,g,h,h,german,NA,NA,NA,images/Generated_Pictures/Tri_arrow_4_false_4.png,NA,NA,Is this a fractal?,NA,Fri Mar 19 2021 11:35:43 GMT+0100 (Mitteleuropäische Normalzeit),1616150143275,11.809016666666666,key_press_second_one_comp_4,26
94,,2472,23,,incorrect,Abitur / High School,1616150851816,non-fractal,1,NA,fractal,female,non-fractal,g,h,g,german,NA,NA,NA,images/Generated_Pictures/Quad_circle_4_false_3.png,NA,NA,Is this a fractal?,NA,Fri Mar 19 2021 11:35:43 GMT+0100 (Mitteleuropäische Normalzeit),1616150143275,11.809016666666666,key_press_second_one_comp_4,27
94,,1994,23,,incorrect,Abitur / High School,1616150851816,non-fractal,1,NA,fractal,female,non-fractal,g,h,g,german,NA,NA,NA,images/Generated_Pictures/Quad_triangle_4_false_4.png,NA,NA,Is this a fractal?,NA,Fri Mar 19 2021 11:35:43 GMT+0100 (Mitteleuropäische Normalzeit),1616150143275,11.809016666666666,key_press_second_one_comp_4,28
94,,3190,23,,correct,Abitur / High School,1616150851816,fractal,1,NA,fractal,female,non-fractal,g,h,g,german,NA,NA,NA,images/Generated_Pictures/Quad_triangle_4.png,NA,NA,Is this a fractal?,NA,Fri Mar 19 2021 11:35:43 GMT+0100 (Mitteleuropäische Normalzeit),1616150143275,11.809016666666666,key_press_second,4
94,,3578,23,,incorrect,Abitur / High School,1616150851816,non-fractal,1,NA,fractal,female,non-fractal,g,h,g,german,NA,NA,NA,images/Generated_Pictures/Tri_triangle_4_false_3.png,NA,NA,Is this a fractal?,NA,Fri Mar 19 2021 11:35:43 GMT+0100 (Mitteleuropäische Normalzeit),1616150143275,11.809016666666666,key_press_second_one_comp_4,29
94,,2986,23,,incorrect,Abitur / High School,1616150851816,non-fractal,1,NA,fractal,female,non-fractal,g,h,g,german,NA,NA,NA,images/Generated_Pictures/Quad_arrow_4_false_3.png,NA,NA,Is this a fractal?,NA,Fri Mar 19 2021 11:35:43 GMT+0100 (Mitteleuropäische Normalzeit),1616150143275,11.809016666666666,key_press_second_one_comp_4,30
94,,1880,23,,incorrect,Abitur / High School,1616150851816,non-fractal,1,NA,fractal,female,non-fractal,g,h,g,german,NA,NA,NA,images/Generated_Pictures/Quad_square_4_false_4.png,NA,NA,Is this a fractal?,NA,Fri Mar 19 2021 11:35:43 GMT+0100 (Mitteleuropäische Normalzeit),1616150143275,11.809016666666666,key_press_second_one_comp_4,31
94,,2172,23,,incorrect,Abitur / High School,1616150851816,non-fractal,1,NA,fractal,female,non-fractal,g,h,g,german,NA,NA,NA,images/Generated_Pictures/Quad_circle_4_false_4.png,NA,NA,Is this a fractal?,NA,Fri Mar 19 2021 11:35:43 GMT+0100 (Mitteleuropäische Normalzeit),1616150143275,11.809016666666666,key_press_second_one_comp_4,32
94,,2987,23,,incorrect,Abitur / High School,1616150851816,non-fractal,1,NA,fractal,female,non-fractal,g,h,g,german,NA,NA,NA,images/Generated_Pictures/Quad_square_4_false_3.png,NA,NA,Is this a fractal?,NA,Fri Mar 19 2021 11:35:43 GMT+0100 (Mitteleuropäische Normalzeit),1616150143275,11.809016666666666,key_press_second_one_comp_4,33
94,,4827,23,,incorrect,Abitur / High School,1616150851816,non-fractal,1,NA,fractal,female,non-fractal,g,h,g,german,NA,NA,NA,images/Generated_Pictures/Quad_circle_4_false_3.png,NA,NA,Is this a fractal?,NA,Fri Mar 19 2021 11:35:43 GMT+0100 (Mitteleuropäische Normalzeit),1616150143275,11.809016666666666,key_press_second_one_comp_4,34
94,,2037,23,,incorrect,Abitur / High School,1616150851816,non-fractal,1,NA,fractal,female,non-fractal,g,h,g,german,NA,NA,NA,images/Generated_Pictures/Quad_square_4_false_3.png,NA,NA,Is this a fractal?,NA,Fri Mar 19 2021 11:35:43 GMT+0100 (Mitteleuropäische Normalzeit),1616150143275,11.809016666666666,key_press_second_one_comp_4,35
94,,2056,23,,correct,Abitur / High School,1616150851816,fractal,1,NA,fractal,female,non-fractal,g,h,g,german,NA,NA,NA,images/Generated_Pictures/Quad_circle_4.png,NA,NA,Is this a fractal?,NA,Fri Mar 19 2021 11:35:43 GMT+0100 (Mitteleuropäische Normalzeit),1616150143275,11.809016666666666,key_press_second,5
94,,2043,23,,incorrect,Abitur / High School,1616150851816,non-fractal,1,NA,fractal,female,non-fractal,g,h,g,german,NA,NA,NA,images/Generated_Pictures/Penta_square_3_false_2.png,NA,NA,Is this a fractal?,NA,Fri Mar 19 2021 11:35:43 GMT+0100 (Mitteleuropäische Normalzeit),1616150143275,11.809016666666666,key_press_second_one_comp_3,1
94,,1979,23,,incorrect,Abitur / High School,1616150851816,non-fractal,1,NA,fractal,female,non-fractal,g,h,g,german,NA,NA,NA,images/Generated_Pictures/Penta_square_3_false_2.png,NA,NA,Is this a fractal?,NA,Fri Mar 19 2021 11:35:43 GMT+0100 (Mitteleuropäische Normalzeit),1616150143275,11.809016666666666,key_press_second_one_comp_3,2
94,,1927,23,,incorrect,Abitur / High School,1616150851816,non-fractal,1,NA,fractal,female,non-fractal,g,h,g,german,NA,NA,NA,images/Generated_Pictures/Penta_circle_3_false_2.png,NA,NA,Is this a fractal?,NA,Fri Mar 19 2021 11:35:43 GMT+0100 (Mitteleuropäische Normalzeit),1616150143275,11.809016666666666,key_press_second_one_comp_3,3
94,,2853,23,,correct,Abitur / High School,1616150851816,fractal,1,NA,fractal,female,non-fractal,g,h,g,german,NA,NA,NA,images/Generated_Pictures/Penta_square_3.png,NA,NA,Is this a fractal?,NA,Fri Mar 19 2021 11:35:43 GMT+0100 (Mitteleuropäische Normalzeit),1616150143275,11.809016666666666,key_press_second_two_comp_3,1
94,,2732,23,,correct,Abitur / High School,1616150851816,non-fractal,1,NA,fractal,female,non-fractal,g,h,h,german,NA,NA,NA,images/Generated_Pictures/Hexa_square_3_false_2.png,NA,NA,Is this a fractal?,NA,Fri Mar 19 2021 11:35:43 GMT+0100 (Mitteleuropäische Normalzeit),1616150143275,11.809016666666666,key_press_second_one_comp_3,4
94,,2424,23,,incorrect,Abitur / High School,1616150851816,non-fractal,1,NA,fractal,female,non-fractal,g,h,g,german,NA,NA,NA,images/Generated_Pictures/Penta_triangle_3_false_2.png,NA,NA,Is this a fractal?,NA,Fri Mar 19 2021 11:35:43 GMT+0100 (Mitteleuropäische Normalzeit),1616150143275,11.809016666666666,key_press_second_one_comp_3,5
94,,5210,23,,correct,Abitur / High School,1616150851816,non-fractal,1,NA,fractal,female,non-fractal,g,h,h,german,NA,NA,NA,images/Generated_Pictures/Penta_circle_3_false_3.png,NA,NA,Is this a fractal?,NA,Fri Mar 19 2021 11:35:43 GMT+0100 (Mitteleuropäische Normalzeit),1616150143275,11.809016666666666,key_press_second_one_comp_3,6
94,,2276,23,,correct,Abitur / High School,1616150851816,fractal,1,NA,fractal,female,non-fractal,g,h,g,german,NA,NA,NA,images/Generated_Pictures/Hexa_circle_3.png,NA,NA,Is this a fractal?,NA,Fri Mar 19 2021 11:35:43 GMT+0100 (Mitteleuropäische Normalzeit),1616150143275,11.809016666666666,key_press_second_two_comp_3,2
94,,1682,23,,incorrect,Abitur / High School,1616150851816,non-fractal,1,NA,fractal,female,non-fractal,g,h,g,german,NA,NA,NA,images/Generated_Pictures/Hexa_arrow_3_false_2.png,NA,NA,Is this a fractal?,NA,Fri Mar 19 2021 11:35:43 GMT+0100 (Mitteleuropäische Normalzeit),1616150143275,11.809016666666666,key_press_second_one_comp_3,7
94,,3157,23,,correct,Abitur / High School,1616150851816,non-fractal,1,NA,fractal,female,non-fractal,g,h,h,german,NA,NA,NA,images/Generated_Pictures/Penta_arrow_3_false_3.png,NA,NA,Is this a fractal?,NA,Fri Mar 19 2021 11:35:43 GMT+0100 (Mitteleuropäische Normalzeit),1616150143275,11.809016666666666,key_press_second_one_comp_3,8
94,,2172,23,,correct,Abitur / High School,1616150851816,non-fractal,1,NA,fractal,female,non-fractal,g,h,h,german,NA,NA,NA,images/Generated_Pictures/Penta_circle_3_false_3.png,NA,NA,Is this a fractal?,NA,Fri Mar 19 2021 11:35:43 GMT+0100 (Mitteleuropäische Normalzeit),1616150143275,11.809016666666666,key_press_second_one_comp_3,9
94,,1895,23,,correct,Abitur / High School,1616150851816,fractal,1,NA,fractal,female,non-fractal,g,h,g,german,NA,NA,NA,images/Generated_Pictures/Quad_square_3.png,NA,NA,Is this a fractal?,NA,Fri Mar 19 2021 11:35:43 GMT+0100 (Mitteleuropäische Normalzeit),1616150143275,11.809016666666666,key_press_second_two_comp_3,3
94,,2036,23,,correct,Abitur / High School,1616150851816,non-fractal,1,NA,fractal,female,non-fractal,g,h,h,german,NA,NA,NA,images/Generated_Pictures/Hexa_square_3_false_3.png,NA,NA,Is this a fractal?,NA,Fri Mar 19 2021 11:35:43 GMT+0100 (Mitteleuropäische Normalzeit),1616150143275,11.809016666666666,key_press_second_one_comp_3,10
94,,3807,23,,correct,Abitur / High School,1616150851816,non-fractal,1,NA,fractal,female,non-fractal,g,h,h,german,NA,NA,NA,images/Generated_Pictures/Penta_square_3_false_3.png,NA,NA,Is this a fractal?,NA,Fri Mar 19 2021 11:35:43 GMT+0100 (Mitteleuropäische Normalzeit),1616150143275,11.809016666666666,key_press_second_one_comp_3,11
94,,1845,23,,correct,Abitur / High School,1616150851816,non-fractal,1,NA,fractal,female,non-fractal,g,h,h,german,NA,NA,NA,images/Generated_Pictures/Penta_square_3_false_3.png,NA,NA,Is this a fractal?,NA,Fri Mar 19 2021 11:35:43 GMT+0100 (Mitteleuropäische Normalzeit),1616150143275,11.809016666666666,key_press_second_one_comp_3,12
94,,2144,23,,correct,Abitur / High School,1616150851816,fractal,1,NA,fractal,female,non-fractal,g,h,g,german,NA,NA,NA,images/Generated_Pictures/Tri_arrow_3.png,NA,NA,Is this a fractal?,NA,Fri Mar 19 2021 11:35:43 GMT+0100 (Mitteleuropäische Normalzeit),1616150143275,11.809016666666666,key_press_second_two_comp_3,4
94,,2551,23,,correct,Abitur / High School,1616150851816,non-fractal,1,NA,fractal,female,non-fractal,g,h,h,german,NA,NA,NA,images/Generated_Pictures/Penta_triangle_3_false_3.png,NA,NA,Is this a fractal?,NA,Fri Mar 19 2021 11:35:43 GMT+0100 (Mitteleuropäische Normalzeit),1616150143275,11.809016666666666,key_press_second_one_comp_3,13
94,,2098,23,,correct,Abitur / High School,1616150851816,non-fractal,1,NA,fractal,female,non-fractal,g,h,h,german,NA,NA,NA,images/Generated_Pictures/Hexa_square_3_false_3.png,NA,NA,Is this a fractal?,NA,Fri Mar 19 2021 11:35:43 GMT+0100 (Mitteleuropäische Normalzeit),1616150143275,11.809016666666666,key_press_second_one_comp_3,14
94,,3500,23,,correct,Abitur / High School,1616150851816,non-fractal,1,NA,fractal,female,non-fractal,g,h,h,german,NA,NA,NA,images/Generated_Pictures/Penta_circle_3_false_3.png,NA,NA,Is this a fractal?,NA,Fri Mar 19 2021 11:35:43 GMT+0100 (Mitteleuropäische Normalzeit),1616150143275,11.809016666666666,key_press_second_one_comp_3,15
94,,2805,23,,correct,Abitur / High School,1616150851816,fractal,1,NA,fractal,female,non-fractal,g,h,g,german,NA,NA,NA,images/Generated_Pictures/Quad_arrow_3.png,NA,NA,Is this a fractal?,NA,Fri Mar 19 2021 11:35:43 GMT+0100 (Mitteleuropäische Normalzeit),1616150143275,11.809016666666666,key_press_second_two_comp_3,5
95,,2321,24,hi lucaaaaaaaaa,NA,Abitur / High School,1616153609893,NA,1,NA,NA,female,NA,NA,NA,NA,"German, Danish",left,right,NA,images/Hands.png,NA,NA,Which hand is your primary hand?,right,Fri Mar 19 2021 12:05:12 GMT+0100 (Central European Standard Time),1616151912899,28.28323333333333,forced_choice_preQ,1
95,,12888,24,hi lucaaaaaaaaa,NA,Abitur / High School,1616153609893,NA,1,NA,NA,female,NA,NA,NA,NA,"German, Danish",Yes,No,NA,images/Fractals_pre_Q.png,NA,NA,Do you know or can you find a familiar idea behind these pictures?,Yes,Fri Mar 19 2021 12:05:12 GMT+0100 (Central European Standard Time),1616151912899,28.28323333333333,forced_choice_preQ,2
95,,3053,24,hi lucaaaaaaaaa,NA,Abitur / High School,1616153609893,NA,1,NA,NA,female,NA,NA,NA,NA,"German, Danish",Yes,No,NA,images/question_mark_01.png,NA,NA,Have you ever heard or read about a <strong>FRACTAL</strong>?,Yes,Fri Mar 19 2021 12:05:12 GMT+0100 (Central European Standard Time),1616151912899,28.28323333333333,forced_choice_preQ,3
95,NA,5379,24,hi lucaaaaaaaaa,correct,Abitur / High School,1616153609893,right,1,NA,NA,female,NA,NA,NA,right,"German, Danish",NA,NA,921352,NA,Quad_arrow_4_false_4.png,Quad_arrow_4.png,Which is the correct continuation?,NA,Fri Mar 19 2021 12:05:12 GMT+0100 (Central European Standard Time),1616151912899,28.28323333333333,fractal_view_2D_TT,1
95,NA,2499,24,hi lucaaaaaaaaa,correct,Abitur / High School,1616153609893,right,1,NA,NA,female,NA,NA,NA,right,"German, Danish",NA,NA,921352,NA,Quad_square_4_iteration_3_false.png,Quad_square_4_iteration_3.png,Which is the correct continuation?,NA,Fri Mar 19 2021 12:05:12 GMT+0100 (Central European Standard Time),1616151912899,28.28323333333333,fractal_view_2D_TT,2
95,NA,4665,24,hi lucaaaaaaaaa,correct,Abitur / High School,1616153609893,right,1,iteration,NA,female,NA,NA,NA,right,"German, Danish",NA,NA,921352,NA,Tri_square_3_iteration_3.png,Tri_square_3_iteration_3_false.png,Which is the correct continuation?,NA,Fri Mar 19 2021 12:05:12 GMT+0100 (Central European Standard Time),1616151912899,28.28323333333333,fractal_view_2D,1
95,NA,7032,24,hi lucaaaaaaaaa,correct,Abitur / High School,1616153609893,right,1,iteration,NA,female,NA,NA,NA,right,"German, Danish",NA,NA,921352,NA,Tri_square_4_iteration_3.png,Tri_square_4_iteration_3_false.png,Which is the correct continuation?,NA,Fri Mar 19 2021 12:05:12 GMT+0100 (Central European Standard Time),1616151912899,28.28323333333333,fractal_view_2D,2
95,NA,4157,24,hi lucaaaaaaaaa,correct,Abitur / High School,1616153609893,left,1,NA,NA,female,NA,NA,NA,left,"German, Danish",NA,NA,921352,NA,Hexa_circle_3_iteration_4.png,Hexa_circle_3_iteration_4_false.png,Which is the correct continuation?,NA,Fri Mar 19 2021 12:05:12 GMT+0100 (Central European Standard Time),1616151912899,28.28323333333333,fractal_view_2D,3
95,NA,3470,24,hi lucaaaaaaaaa,correct,Abitur / High School,1616153609893,left,1,NA,NA,female,NA,NA,NA,left,"German, Danish",NA,NA,921352,NA,Hexa_square_3_iteration_4.png,Hexa_square_3_iteration_4_false.png,Which is the correct continuation?,NA,Fri Mar 19 2021 12:05:12 GMT+0100 (Central European Standard Time),1616151912899,28.28323333333333,fractal_view_2D,4
95,NA,3087,24,hi lucaaaaaaaaa,correct,Abitur / High School,1616153609893,left,1,NA,NA,female,NA,NA,NA,left,"German, Danish",NA,NA,921352,NA,Quad_circle_4_iteration_3.png,Quad_circle_4_iteration_3_false.png,Which is the correct continuation?,NA,Fri Mar 19 2021 12:05:12 GMT+0100 (Central European Standard Time),1616151912899,28.28323333333333,fractal_view_2D,5
95,NA,6299,24,hi lucaaaaaaaaa,correct,Abitur / High School,1616153609893,right,1,iteration,NA,female,NA,NA,NA,right,"German, Danish",NA,NA,921352,NA,Hexa_circle_3_iteration_3.png,Hexa_circle_3_iteration_3_false.png,Which is the correct continuation?,NA,Fri Mar 19 2021 12:05:12 GMT+0100 (Central European Standard Time),1616151912899,28.28323333333333,fractal_view_2D,6
95,,8303,24,hi lucaaaaaaaaa,correct,Abitur / High School,1616153609893,non-fractal,1,NA,fractal,female,non-fractal,g,h,h,"German, Danish",NA,NA,NA,images/Generated_Pictures/Quad_square_4_false_4.png,NA,NA,Is this a fractal? - <strong>TEST</strong>,NA,Fri Mar 19 2021 12:05:12 GMT+0100 (Central European Standard Time),1616151912899,28.28323333333333,key_press_testTrial,1
95,,6349,24,hi lucaaaaaaaaa,incorrect,Abitur / High School,1616153609893,non-fractal,1,NA,fractal,female,non-fractal,g,h,g,"German, Danish",NA,NA,NA,images/Generated_Pictures/Hexa_square_3_false_2.png,NA,NA,Is this a fractal? - <strong>TEST</strong>,NA,Fri Mar 19 2021 12:05:12 GMT+0100 (Central European Standard Time),1616151912899,28.28323333333333,key_press_testTrial,2
95,,5683,24,hi lucaaaaaaaaa,correct,Abitur / High School,1616153609893,fractal,1,NA,fractal,female,non-fractal,g,h,g,"German, Danish",NA,NA,NA,images/Generated_Pictures/Quad_square_2.png,NA,NA,Is this a fractal? - <strong>TEST</strong>,NA,Fri Mar 19 2021 12:05:12 GMT+0100 (Central European Standard Time),1616151912899,28.28323333333333,key_press_testTrial,3
95,,6428,24,hi lucaaaaaaaaa,incorrect,Abitur / High School,1616153609893,non-fractal,1,NA,fractal,female,non-fractal,g,h,g,"German, Danish",NA,NA,NA,images/Generated_Pictures/Tri_square_4_false_3.png,NA,NA,Is this a fractal? - <strong>TEST</strong>,NA,Fri Mar 19 2021 12:05:12 GMT+0100 (Central European Standard Time),1616151912899,28.28323333333333,key_press_testTrial,4
95,,6105,24,hi lucaaaaaaaaa,correct,Abitur / High School,1616153609893,fractal,1,NA,fractal,female,non-fractal,g,h,g,"German, Danish",NA,NA,NA,images/Generated_Pictures/Quad_square_3.png,NA,NA,Is this a fractal? - <strong>TEST</strong>,NA,Fri Mar 19 2021 12:05:12 GMT+0100 (Central European Standard Time),1616151912899,28.28323333333333,key_press_testTrial,5
95,,3388,24,hi lucaaaaaaaaa,correct,Abitur / High School,1616153609893,fractal,1,NA,fractal,female,non-fractal,g,h,g,"German, Danish",NA,NA,NA,images/Generated_Pictures/Tri_square_3.png,NA,NA,Is this a fractal? - <strong>TEST</strong>,NA,Fri Mar 19 2021 12:05:12 GMT+0100 (Central European Standard Time),1616151912899,28.28323333333333,key_press_testTrial,6
95,,8599,24,hi lucaaaaaaaaa,correct,Abitur / High School,1616153609893,non-fractal,1,NA,fractal,female,non-fractal,g,h,h,"German, Danish",NA,NA,NA,images/Generated_Pictures/Tri_square_4_false_4.png,NA,NA,Is this a fractal? - <strong>TEST</strong>,NA,Fri Mar 19 2021 12:05:12 GMT+0100 (Central European Standard Time),1616151912899,28.28323333333333,key_press_testTrial,7
95,,11806,24,hi lucaaaaaaaaa,correct,Abitur / High School,1616153609893,fractal,1,NA,fractal,female,non-fractal,g,h,g,"German, Danish",NA,NA,NA,images/Generated_Pictures/Hexa_square_3.png,NA,NA,Is this a fractal? - <strong>TEST</strong>,NA,Fri Mar 19 2021 12:05:12 GMT+0100 (Central European Standard Time),1616151912899,28.28323333333333,key_press_testTrial,8
95,,6599,24,hi lucaaaaaaaaa,correct,Abitur / High School,1616153609893,fractal,1,NA,fractal,female,non-fractal,g,h,g,"German, Danish",NA,NA,NA,images/Generated_Pictures/Hexa_triangle_3.png,NA,NA,Is this a fractal?,NA,Fri Mar 19 2021 12:05:12 GMT+0100 (Central European Standard Time),1616151912899,28.28323333333333,key_press_first_one_comp_3,1
95,,6708,24,hi lucaaaaaaaaa,correct,Abitur / High School,1616153609893,fractal,1,NA,fractal,female,non-fractal,g,h,g,"German, Danish",NA,NA,NA,images/Generated_Pictures/Penta_arrow_3.png,NA,NA,Is this a fractal?,NA,Fri Mar 19 2021 12:05:12 GMT+0100 (Central European Standard Time),1616151912899,28.28323333333333,key_press_first_one_comp_3,2
95,,4378,24,hi lucaaaaaaaaa,incorrect,Abitur / High School,1616153609893,non-fractal,1,NA,fractal,female,non-fractal,g,h,g,"German, Danish",NA,NA,NA,images/Generated_Pictures/Hexa_triangle_3_false_2.png,NA,NA,Is this a fractal?,NA,Fri Mar 19 2021 12:05:12 GMT+0100 (Central European Standard Time),1616151912899,28.28323333333333,key_press_first_two_comp_3,1
95,,3073,24,hi lucaaaaaaaaa,correct,Abitur / High School,1616153609893,fractal,1,NA,fractal,female,non-fractal,g,h,g,"German, Danish",NA,NA,NA,images/Generated_Pictures/Tri_square_3.png,NA,NA,Is this a fractal?,NA,Fri Mar 19 2021 12:05:12 GMT+0100 (Central European Standard Time),1616151912899,28.28323333333333,key_press_first_one_comp_3,3
95,,7278,24,hi lucaaaaaaaaa,correct,Abitur / High School,1616153609893,fractal,1,NA,fractal,female,non-fractal,g,h,g,"German, Danish",NA,NA,NA,images/Generated_Pictures/Hexa_triangle_3.png,NA,NA,Is this a fractal?,NA,Fri Mar 19 2021 12:05:12 GMT+0100 (Central European Standard Time),1616151912899,28.28323333333333,key_press_first_one_comp_3,4
95,,3482,24,hi lucaaaaaaaaa,incorrect,Abitur / High School,1616153609893,non-fractal,1,NA,fractal,female,non-fractal,g,h,g,"German, Danish",NA,NA,NA,images/Generated_Pictures/Penta_arrow_3_false_3.png,NA,NA,Is this a fractal?,NA,Fri Mar 19 2021 12:05:12 GMT+0100 (Central European Standard Time),1616151912899,28.28323333333333,key_press_first_two_comp_3,2
95,,3073,24,hi lucaaaaaaaaa,correct,Abitur / High School,1616153609893,fractal,1,NA,fractal,female,non-fractal,g,h,g,"German, Danish",NA,NA,NA,images/Generated_Pictures/Penta_square_3.png,NA,NA,Is this a fractal?,NA,Fri Mar 19 2021 12:05:12 GMT+0100 (Central European Standard Time),1616151912899,28.28323333333333,key_press_first_one_comp_3,5
95,,3285,24,hi lucaaaaaaaaa,correct,Abitur / High School,1616153609893,fractal,1,NA,fractal,female,non-fractal,g,h,g,"German, Danish",NA,NA,NA,images/Generated_Pictures/Hexa_triangle_3.png,NA,NA,Is this a fractal?,NA,Fri Mar 19 2021 12:05:12 GMT+0100 (Central European Standard Time),1616151912899,28.28323333333333,key_press_first_one_comp_3,6
95,,3165,24,hi lucaaaaaaaaa,incorrect,Abitur / High School,1616153609893,non-fractal,1,NA,fractal,female,non-fractal,g,h,g,"German, Danish",NA,NA,NA,images/Generated_Pictures/Hexa_circle_3_false_3.png,NA,NA,Is this a fractal?,NA,Fri Mar 19 2021 12:05:12 GMT+0100 (Central European Standard Time),1616151912899,28.28323333333333,key_press_first_two_comp_3,3
95,,3579,24,hi lucaaaaaaaaa,correct,Abitur / High School,1616153609893,fractal,1,NA,fractal,female,non-fractal,g,h,g,"German, Danish",NA,NA,NA,images/Generated_Pictures/Penta_triangle_3.png,NA,NA,Is this a fractal?,NA,Fri Mar 19 2021 12:05:12 GMT+0100 (Central European Standard Time),1616151912899,28.28323333333333,key_press_first_one_comp_3,7
95,,2726,24,hi lucaaaaaaaaa,correct,Abitur / High School,1616153609893,fractal,1,NA,fractal,female,non-fractal,g,h,g,"German, Danish",NA,NA,NA,images/Generated_Pictures/Penta_circle_3.png,NA,NA,Is this a fractal?,NA,Fri Mar 19 2021 12:05:12 GMT+0100 (Central European Standard Time),1616151912899,28.28323333333333,key_press_first_one_comp_3,8
95,,2539,24,hi lucaaaaaaaaa,incorrect,Abitur / High School,1616153609893,non-fractal,1,NA,fractal,female,non-fractal,g,h,g,"German, Danish",NA,NA,NA,images/Generated_Pictures/Hexa_square_3_false_3.png,NA,NA,Is this a fractal?,NA,Fri Mar 19 2021 12:05:12 GMT+0100 (Central European Standard Time),1616151912899,28.28323333333333,key_press_first_two_comp_3,4
95,,2945,24,hi lucaaaaaaaaa,correct,Abitur / High School,1616153609893,fractal,1,NA,fractal,female,non-fractal,g,h,g,"German, Danish",NA,NA,NA,images/Generated_Pictures/Penta_circle_3.png,NA,NA,Is this a fractal?,NA,Fri Mar 19 2021 12:05:12 GMT+0100 (Central European Standard Time),1616151912899,28.28323333333333,key_press_first_one_comp_3,9
95,,3663,24,hi lucaaaaaaaaa,correct,Abitur / High School,1616153609893,fractal,1,NA,fractal,female,non-fractal,g,h,g,"German, Danish",NA,NA,NA,images/Generated_Pictures/Hexa_arrow_3.png,NA,NA,Is this a fractal?,NA,Fri Mar 19 2021 12:05:12 GMT+0100 (Central European Standard Time),1616151912899,28.28323333333333,key_press_first_one_comp_3,10
95,,2955,24,hi lucaaaaaaaaa,incorrect,Abitur / High School,1616153609893,non-fractal,1,NA,fractal,female,non-fractal,g,h,g,"German, Danish",NA,NA,NA,images/Generated_Pictures/Hexa_circle_3_false_2.png,NA,NA,Is this a fractal?,NA,Fri Mar 19 2021 12:05:12 GMT+0100 (Central European Standard Time),1616151912899,28.28323333333333,key_press_first_two_comp_3,5
95,,5128,24,hi lucaaaaaaaaa,correct,Abitur / High School,1616153609893,fractal,1,NA,fractal,female,non-fractal,g,h,g,"German, Danish",NA,NA,NA,images/Generated_Pictures/Quad_arrow_4.png,NA,NA,Is this a fractal?,NA,Fri Mar 19 2021 12:05:12 GMT+0100 (Central European Standard Time),1616151912899,28.28323333333333,key_press_first_one_comp_4,1
95,,3819,24,hi lucaaaaaaaaa,correct,Abitur / High School,1616153609893,fractal,1,NA,fractal,female,non-fractal,g,h,g,"German, Danish",NA,NA,NA,images/Generated_Pictures/Tri_circle_4.png,NA,NA,Is this a fractal?,NA,Fri Mar 19 2021 12:05:12 GMT+0100 (Central European Standard Time),1616151912899,28.28323333333333,key_press_first_one_comp_4,2
95,,3322,24,hi lucaaaaaaaaa,correct,Abitur / High School,1616153609893,fractal,1,NA,fractal,female,non-fractal,g,h,g,"German, Danish",NA,NA,NA,images/Generated_Pictures/Tri_square_4.png,NA,NA,Is this a fractal?,NA,Fri Mar 19 2021 12:05:12 GMT+0100 (Central European Standard Time),1616151912899,28.28323333333333,key_press_first_one_comp_4,3
95,,4181,24,hi lucaaaaaaaaa,correct,Abitur / High School,1616153609893,fractal,1,NA,fractal,female,non-fractal,g,h,g,"German, Danish",NA,NA,NA,images/Generated_Pictures/Quad_triangle_4.png,NA,NA,Is this a fractal?,NA,Fri Mar 19 2021 12:05:12 GMT+0100 (Central European Standard Time),1616151912899,28.28323333333333,key_press_first_one_comp_4,4
95,,2542,24,hi lucaaaaaaaaa,correct,Abitur / High School,1616153609893,fractal,1,NA,fractal,female,non-fractal,g,h,g,"German, Danish",NA,NA,NA,images/Generated_Pictures/Quad_circle_2.png,NA,NA,Is this a fractal?,NA,Fri Mar 19 2021 12:05:12 GMT+0100 (Central European Standard Time),1616151912899,28.28323333333333,key_press_first_one_comp_4,5
95,,5670,24,hi lucaaaaaaaaa,correct,Abitur / High School,1616153609893,fractal,1,NA,fractal,female,non-fractal,g,h,g,"German, Danish",NA,NA,NA,images/Generated_Pictures/Quad_triangle_4.png,NA,NA,Is this a fractal?,NA,Fri Mar 19 2021 12:05:12 GMT+0100 (Central European Standard Time),1616151912899,28.28323333333333,key_press_first_one_comp_4,6
95,,3553,24,hi lucaaaaaaaaa,correct,Abitur / High School,1616153609893,fractal,1,NA,fractal,female,non-fractal,g,h,g,"German, Danish",NA,NA,NA,images/Generated_Pictures/Tri_circle_4.png,NA,NA,Is this a fractal?,NA,Fri Mar 19 2021 12:05:12 GMT+0100 (Central European Standard Time),1616151912899,28.28323333333333,key_press_first_one_comp_4,7
95,,4301,24,hi lucaaaaaaaaa,correct,Abitur / High School,1616153609893,fractal,1,NA,fractal,female,non-fractal,g,h,g,"German, Danish",NA,NA,NA,images/Generated_Pictures/Tri_arrow_4.png,NA,NA,Is this a fractal?,NA,Fri Mar 19 2021 12:05:12 GMT+0100 (Central European Standard Time),1616151912899,28.28323333333333,key_press_first_one_comp_4,8
95,,5258,24,hi lucaaaaaaaaa,correct,Abitur / High School,1616153609893,non-fractal,1,NA,fractal,female,non-fractal,g,h,h,"German, Danish",NA,NA,NA,images/Generated_Pictures/Quad_triangle_4_false_4.png,NA,NA,Is this a fractal?,NA,Fri Mar 19 2021 12:05:12 GMT+0100 (Central European Standard Time),1616151912899,28.28323333333333,key_press_first_two_comp_4,1
95,,3727,24,hi lucaaaaaaaaa,correct,Abitur / High School,1616153609893,fractal,1,NA,fractal,female,non-fractal,g,h,g,"German, Danish",NA,NA,NA,images/Generated_Pictures/Quad_circle_4.png,NA,NA,Is this a fractal?,NA,Fri Mar 19 2021 12:05:12 GMT+0100 (Central European Standard Time),1616151912899,28.28323333333333,key_press_first_one_comp_4,9
95,,3343,24,hi lucaaaaaaaaa,correct,Abitur / High School,1616153609893,fractal,1,NA,fractal,female,non-fractal,g,h,g,"German, Danish",NA,NA,NA,images/Generated_Pictures/Tri_circle_4.png,NA,NA,Is this a fractal?,NA,Fri Mar 19 2021 12:05:12 GMT+0100 (Central European Standard Time),1616151912899,28.28323333333333,key_press_first_one_comp_4,10
95,,3728,24,hi lucaaaaaaaaa,correct,Abitur / High School,1616153609893,fractal,1,NA,fractal,female,non-fractal,g,h,g,"German, Danish",NA,NA,NA,images/Generated_Pictures/Quad_circle_4.png,NA,NA,Is this a fractal?,NA,Fri Mar 19 2021 12:05:12 GMT+0100 (Central European Standard Time),1616151912899,28.28323333333333,key_press_first_one_comp_4,11
95,,4510,24,hi lucaaaaaaaaa,correct,Abitur / High School,1616153609893,fractal,1,NA,fractal,female,non-fractal,g,h,g,"German, Danish",NA,NA,NA,images/Generated_Pictures/Quad_arrow_4.png,NA,NA,Is this a fractal?,NA,Fri Mar 19 2021 12:05:12 GMT+0100 (Central European Standard Time),1616151912899,28.28323333333333,key_press_first_one_comp_4,12
95,,4957,24,hi lucaaaaaaaaa,correct,Abitur / High School,1616153609893,fractal,1,NA,fractal,female,non-fractal,g,h,g,"German, Danish",NA,NA,NA,images/Generated_Pictures/Quad_square_4.png,NA,NA,Is this a fractal?,NA,Fri Mar 19 2021 12:05:12 GMT+0100 (Central European Standard Time),1616151912899,28.28323333333333,key_press_first_one_comp_4,13
95,,3053,24,hi lucaaaaaaaaa,correct,Abitur / High School,1616153609893,fractal,1,NA,fractal,female,non-fractal,g,h,g,"German, Danish",NA,NA,NA,images/Generated_Pictures/Quad_arrow_4.png,NA,NA,Is this a fractal?,NA,Fri Mar 19 2021 12:05:12 GMT+0100 (Central European Standard Time),1616151912899,28.28323333333333,key_press_first_one_comp_4,14
95,,3939,24,hi lucaaaaaaaaa,correct,Abitur / High School,1616153609893,fractal,1,NA,fractal,female,non-fractal,g,h,g,"German, Danish",NA,NA,NA,images/Generated_Pictures/Quad_triangle_4.png,NA,NA,Is this a fractal?,NA,Fri Mar 19 2021 12:05:12 GMT+0100 (Central European Standard Time),1616151912899,28.28323333333333,key_press_first_one_comp_4,15
95,,4154,24,hi lucaaaaaaaaa,correct,Abitur / High School,1616153609893,fractal,1,NA,fractal,female,non-fractal,g,h,g,"German, Danish",NA,NA,NA,images/Generated_Pictures/Tri_square_4.png,NA,NA,Is this a fractal?,NA,Fri Mar 19 2021 12:05:12 GMT+0100 (Central European Standard Time),1616151912899,28.28323333333333,key_press_first_one_comp_4,16
95,,3226,24,hi lucaaaaaaaaa,correct,Abitur / High School,1616153609893,non-fractal,1,NA,fractal,female,non-fractal,g,h,h,"German, Danish",NA,NA,NA,images/Generated_Pictures/Tri_square_4_false_3.png,NA,NA,Is this a fractal?,NA,Fri Mar 19 2021 12:05:12 GMT+0100 (Central European Standard Time),1616151912899,28.28323333333333,key_press_first_two_comp_4,2
95,,3244,24,hi lucaaaaaaaaa,correct,Abitur / High School,1616153609893,fractal,1,NA,fractal,female,non-fractal,g,h,g,"German, Danish",NA,NA,NA,images/Generated_Pictures/Tri_triangle_4.png,NA,NA,Is this a fractal?,NA,Fri Mar 19 2021 12:05:12 GMT+0100 (Central European Standard Time),1616151912899,28.28323333333333,key_press_first_one_comp_4,17
95,,3246,24,hi lucaaaaaaaaa,correct,Abitur / High School,1616153609893,fractal,1,NA,fractal,female,non-fractal,g,h,g,"German, Danish",NA,NA,NA,images/Generated_Pictures/Quad_square_4.png,NA,NA,Is this a fractal?,NA,Fri Mar 19 2021 12:05:12 GMT+0100 (Central European Standard Time),1616151912899,28.28323333333333,key_press_first_one_comp_4,18
95,,7042,24,hi lucaaaaaaaaa,correct,Abitur / High School,1616153609893,fractal,1,NA,fractal,female,non-fractal,g,h,g,"German, Danish",NA,NA,NA,images/Generated_Pictures/Tri_arrow_4.png,NA,NA,Is this a fractal?,NA,Fri Mar 19 2021 12:05:12 GMT+0100 (Central European Standard Time),1616151912899,28.28323333333333,key_press_first_one_comp_4,19
95,,2940,24,hi lucaaaaaaaaa,correct,Abitur / High School,1616153609893,fractal,1,NA,fractal,female,non-fractal,g,h,g,"German, Danish",NA,NA,NA,images/Generated_Pictures/Quad_arrow_4.png,NA,NA,Is this a fractal?,NA,Fri Mar 19 2021 12:05:12 GMT+0100 (Central European Standard Time),1616151912899,28.28323333333333,key_press_first_one_comp_4,20
95,,4132,24,hi lucaaaaaaaaa,correct,Abitur / High School,1616153609893,fractal,1,NA,fractal,female,non-fractal,g,h,g,"German, Danish",NA,NA,NA,images/Generated_Pictures/Tri_circle_4.png,NA,NA,Is this a fractal?,NA,Fri Mar 19 2021 12:05:12 GMT+0100 (Central European Standard Time),1616151912899,28.28323333333333,key_press_first_one_comp_4,21
95,,3495,24,hi lucaaaaaaaaa,correct,Abitur / High School,1616153609893,fractal,1,NA,fractal,female,non-fractal,g,h,g,"German, Danish",NA,NA,NA,images/Generated_Pictures/Tri_square_4.png,NA,NA,Is this a fractal?,NA,Fri Mar 19 2021 12:05:12 GMT+0100 (Central European Standard Time),1616151912899,28.28323333333333,key_press_first_one_comp_4,22
95,,3195,24,hi lucaaaaaaaaa,correct,Abitur / High School,1616153609893,fractal,1,NA,fractal,female,non-fractal,g,h,g,"German, Danish",NA,NA,NA,images/Generated_Pictures/Tri_arrow_4.png,NA,NA,Is this a fractal?,NA,Fri Mar 19 2021 12:05:12 GMT+0100 (Central European Standard Time),1616151912899,28.28323333333333,key_press_first_one_comp_4,23
95,,4817,24,hi lucaaaaaaaaa,correct,Abitur / High School,1616153609893,fractal,1,NA,fractal,female,non-fractal,g,h,g,"German, Danish",NA,NA,NA,images/Generated_Pictures/Quad_circle_4.png,NA,NA,Is this a fractal?,NA,Fri Mar 19 2021 12:05:12 GMT+0100 (Central European Standard Time),1616151912899,28.28323333333333,key_press_first_one_comp_4,24
95,,3266,24,hi lucaaaaaaaaa,correct,Abitur / High School,1616153609893,non-fractal,1,NA,fractal,female,non-fractal,g,h,h,"German, Danish",NA,NA,NA,images/Generated_Pictures/Tri_square_4_false_4.png,NA,NA,Is this a fractal?,NA,Fri Mar 19 2021 12:05:12 GMT+0100 (Central European Standard Time),1616151912899,28.28323333333333,key_press_first_two_comp_4,3
95,,2738,24,hi lucaaaaaaaaa,correct,Abitur / High School,1616153609893,fractal,1,NA,fractal,female,non-fractal,g,h,g,"German, Danish",NA,NA,NA,images/Generated_Pictures/Quad_circle_4.png,NA,NA,Is this a fractal?,NA,Fri Mar 19 2021 12:05:12 GMT+0100 (Central European Standard Time),1616151912899,28.28323333333333,key_press_first_one_comp_4,25
95,,3292,24,hi lucaaaaaaaaa,correct,Abitur / High School,1616153609893,fractal,1,NA,fractal,female,non-fractal,g,h,g,"German, Danish",NA,NA,NA,images/Generated_Pictures/Quad_triangle_4.png,NA,NA,Is this a fractal?,NA,Fri Mar 19 2021 12:05:12 GMT+0100 (Central European Standard Time),1616151912899,28.28323333333333,key_press_first_one_comp_4,26
95,,3394,24,hi lucaaaaaaaaa,correct,Abitur / High School,1616153609893,fractal,1,NA,fractal,female,non-fractal,g,h,g,"German, Danish",NA,NA,NA,images/Generated_Pictures/Quad_arrow_4.png,NA,NA,Is this a fractal?,NA,Fri Mar 19 2021 12:05:12 GMT+0100 (Central European Standard Time),1616151912899,28.28323333333333,key_press_first_one_comp_4,27
95,,3244,24,hi lucaaaaaaaaa,correct,Abitur / High School,1616153609893,fractal,1,NA,fractal,female,non-fractal,g,h,g,"German, Danish",NA,NA,NA,images/Generated_Pictures/Tri_arrow_4.png,NA,NA,Is this a fractal?,NA,Fri Mar 19 2021 12:05:12 GMT+0100 (Central European Standard Time),1616151912899,28.28323333333333,key_press_first_one_comp_4,28
95,,2561,24,hi lucaaaaaaaaa,correct,Abitur / High School,1616153609893,fractal,1,NA,fractal,female,non-fractal,g,h,g,"German, Danish",NA,NA,NA,images/Generated_Pictures/Tri_triangle_4.png,NA,NA,Is this a fractal?,NA,Fri Mar 19 2021 12:05:12 GMT+0100 (Central European Standard Time),1616151912899,28.28323333333333,key_press_first_one_comp_4,29
95,,2864,24,hi lucaaaaaaaaa,correct,Abitur / High School,1616153609893,fractal,1,NA,fractal,female,non-fractal,g,h,g,"German, Danish",NA,NA,NA,images/Generated_Pictures/Quad_circle_2.png,NA,NA,Is this a fractal?,NA,Fri Mar 19 2021 12:05:12 GMT+0100 (Central European Standard Time),1616151912899,28.28323333333333,key_press_first_one_comp_4,30
95,,3860,24,hi lucaaaaaaaaa,correct,Abitur / High School,1616153609893,fractal,1,NA,fractal,female,non-fractal,g,h,g,"German, Danish",NA,NA,NA,images/Generated_Pictures/Tri_arrow_4.png,NA,NA,Is this a fractal?,NA,Fri Mar 19 2021 12:05:12 GMT+0100 (Central European Standard Time),1616151912899,28.28323333333333,key_press_first_one_comp_4,31
95,,2137,24,hi lucaaaaaaaaa,correct,Abitur / High School,1616153609893,fractal,1,NA,fractal,female,non-fractal,g,h,g,"German, Danish",NA,NA,NA,images/Generated_Pictures/Tri_triangle_4.png,NA,NA,Is this a fractal?,NA,Fri Mar 19 2021 12:05:12 GMT+0100 (Central European Standard Time),1616151912899,28.28323333333333,key_press_first_one_comp_4,32
95,,3889,24,hi lucaaaaaaaaa,correct,Abitur / High School,1616153609893,non-fractal,1,NA,fractal,female,non-fractal,g,h,h,"German, Danish",NA,NA,NA,images/Generated_Pictures/Quad_circle_4_false_4.png,NA,NA,Is this a fractal?,NA,Fri Mar 19 2021 12:05:12 GMT+0100 (Central European Standard Time),1616151912899,28.28323333333333,key_press_first_two_comp_4,4
95,,5884,24,hi lucaaaaaaaaa,correct,Abitur / High School,1616153609893,fractal,1,NA,fractal,female,non-fractal,g,h,g,"German, Danish",NA,NA,NA,images/Generated_Pictures/Quad_circle_4.png,NA,NA,Is this a fractal?,NA,Fri Mar 19 2021 12:05:12 GMT+0100 (Central European Standard Time),1616151912899,28.28323333333333,key_press_first_one_comp_4,33
95,,5551,24,hi lucaaaaaaaaa,correct,Abitur / High School,1616153609893,fractal,1,NA,fractal,female,non-fractal,g,h,g,"German, Danish",NA,NA,NA,images/Generated_Pictures/Quad_square_4.png,NA,NA,Is this a fractal?,NA,Fri Mar 19 2021 12:05:12 GMT+0100 (Central European Standard Time),1616151912899,28.28323333333333,key_press_first_one_comp_4,34
95,,3674,24,hi lucaaaaaaaaa,correct,Abitur / High School,1616153609893,fractal,1,NA,fractal,female,non-fractal,g,h,g,"German, Danish",NA,NA,NA,images/Generated_Pictures/Quad_triangle_4.png,NA,NA,Is this a fractal?,NA,Fri Mar 19 2021 12:05:12 GMT+0100 (Central European Standard Time),1616151912899,28.28323333333333,key_press_first_one_comp_4,35
95,,4445,24,hi lucaaaaaaaaa,correct,Abitur / High School,1616153609893,fractal,1,NA,fractal,female,non-fractal,g,h,g,"German, Danish",NA,NA,NA,images/Generated_Pictures/Quad_triangle_4.png,NA,NA,Is this a fractal?,NA,Fri Mar 19 2021 12:05:12 GMT+0100 (Central European Standard Time),1616151912899,28.28323333333333,key_press_first_one_comp_4,36
95,,4801,24,hi lucaaaaaaaaa,correct,Abitur / High School,1616153609893,fractal,1,NA,fractal,female,non-fractal,g,h,g,"German, Danish",NA,NA,NA,images/Generated_Pictures/Quad_square_4.png,NA,NA,Is this a fractal?,NA,Fri Mar 19 2021 12:05:12 GMT+0100 (Central European Standard Time),1616151912899,28.28323333333333,key_press_first_one_comp_4,37
95,,5145,24,hi lucaaaaaaaaa,correct,Abitur / High School,1616153609893,fractal,1,NA,fractal,female,non-fractal,g,h,g,"German, Danish",NA,NA,NA,images/Generated_Pictures/Tri_square_4.png,NA,NA,Is this a fractal?,NA,Fri Mar 19 2021 12:05:12 GMT+0100 (Central European Standard Time),1616151912899,28.28323333333333,key_press_first_one_comp_4,38
95,,2860,24,hi lucaaaaaaaaa,correct,Abitur / High School,1616153609893,fractal,1,NA,fractal,female,non-fractal,g,h,g,"German, Danish",NA,NA,NA,images/Generated_Pictures/Quad_square_4.png,NA,NA,Is this a fractal?,NA,Fri Mar 19 2021 12:05:12 GMT+0100 (Central European Standard Time),1616151912899,28.28323333333333,key_press_first_one_comp_4,39
95,,3979,24,hi lucaaaaaaaaa,correct,Abitur / High School,1616153609893,fractal,1,NA,fractal,female,non-fractal,g,h,g,"German, Danish",NA,NA,NA,images/Generated_Pictures/Quad_circle_4.png,NA,NA,Is this a fractal?,NA,Fri Mar 19 2021 12:05:12 GMT+0100 (Central European Standard Time),1616151912899,28.28323333333333,key_press_first_one_comp_4,40
95,,7206,24,hi lucaaaaaaaaa,correct,Abitur / High School,1616153609893,non-fractal,1,NA,fractal,female,non-fractal,g,h,h,"German, Danish",NA,NA,NA,images/Generated_Pictures/Tri_square_4_false_3.png,NA,NA,Is this a fractal?,NA,Fri Mar 19 2021 12:05:12 GMT+0100 (Central European Standard Time),1616151912899,28.28323333333333,key_press_first_two_comp_4,5
95,NA,5691,24,hi lucaaaaaaaaa,correct,Abitur / High School,1616153609893,right,1,turn,NA,female,NA,NA,NA,right,"German, Danish",NA,NA,921352,NA,Tri_triangle_3_false_3.png,Tri_triangle_3.png,Which is the correct continuation?,NA,Fri Mar 19 2021 12:05:12 GMT+0100 (Central European Standard Time),1616151912899,28.28323333333333,fractal_view_2D_fractal,1
95,NA,2468,24,hi lucaaaaaaaaa,correct,Abitur / High School,1616153609893,right,1,turn,NA,female,NA,NA,NA,right,"German, Danish",NA,NA,921352,NA,Quad_circle_3_false_3.png,Quad_circle_3.png,Which is the correct continuation?,NA,Fri Mar 19 2021 12:05:12 GMT+0100 (Central European Standard Time),1616151912899,28.28323333333333,fractal_view_2D_fractal,2
95,NA,2313,24,hi lucaaaaaaaaa,correct,Abitur / High School,1616153609893,left,1,NA,NA,female,NA,NA,NA,left,"German, Danish",NA,NA,921352,NA,Quad_square_4.png,Quad_square_4_false_4.png,Which is the correct continuation?,NA,Fri Mar 19 2021 12:05:12 GMT+0100 (Central European Standard Time),1616151912899,28.28323333333333,fractal_view_2D_fractal,3
95,NA,3072,24,hi lucaaaaaaaaa,incorrect,Abitur / High School,1616153609893,left,1,turn,NA,female,NA,NA,NA,right,"German, Danish",NA,NA,921352,NA,Hexa_square_3.png,Hexa_square_3_false_3.png,Which is the correct continuation?,NA,Fri Mar 19 2021 12:05:12 GMT+0100 (Central European Standard Time),1616151912899,28.28323333333333,fractal_view_2D_fractal,4
95,NA,3008,24,hi lucaaaaaaaaa,correct,Abitur / High School,1616153609893,right,1,NA,NA,female,NA,NA,NA,right,"German, Danish",NA,NA,921352,NA,Tri_triangle_4_false_4.png,Tri_triangle_4.png,Which is the correct continuation?,NA,Fri Mar 19 2021 12:05:12 GMT+0100 (Central European Standard Time),1616151912899,28.28323333333333,fractal_view_2D_fractal,5
95,NA,8213,24,hi lucaaaaaaaaa,correct,Abitur / High School,1616153609893,left,1,turn,NA,female,NA,NA,NA,left,"German, Danish",NA,NA,921352,NA,Penta_circle_3.png,Penta_circle_3_false_3.png,Which is the correct continuation?,NA,Fri Mar 19 2021 12:05:12 GMT+0100 (Central European Standard Time),1616151912899,28.28323333333333,fractal_view_2D_fractal,6
95,,3985,24,hi lucaaaaaaaaa,correct,Abitur / High School,1616153609893,non-fractal,1,NA,fractal,female,non-fractal,g,h,h,"German, Danish",NA,NA,NA,images/Generated_Pictures/Quad_arrow_4_false_4.png,NA,NA,Is this a fractal?,NA,Fri Mar 19 2021 12:05:12 GMT+0100 (Central European Standard Time),1616151912899,28.28323333333333,key_press_second_one_comp_4,1
95,,2251,24,hi lucaaaaaaaaa,correct,Abitur / High School,1616153609893,non-fractal,1,NA,fractal,female,non-fractal,g,h,h,"German, Danish",NA,NA,NA,images/Generated_Pictures/Quad_square_4_false_4.png,NA,NA,Is this a fractal?,NA,Fri Mar 19 2021 12:05:12 GMT+0100 (Central European Standard Time),1616151912899,28.28323333333333,key_press_second_one_comp_4,2
95,,3339,24,hi lucaaaaaaaaa,incorrect,Abitur / High School,1616153609893,non-fractal,1,NA,fractal,female,non-fractal,g,h,g,"German, Danish",NA,NA,NA,images/Generated_Pictures/Tri_square_4_false_3.png,NA,NA,Is this a fractal?,NA,Fri Mar 19 2021 12:05:12 GMT+0100 (Central European Standard Time),1616151912899,28.28323333333333,key_press_second_one_comp_4,3
95,,7692,24,hi lucaaaaaaaaa,correct,Abitur / High School,1616153609893,non-fractal,1,NA,fractal,female,non-fractal,g,h,h,"German, Danish",NA,NA,NA,images/Generated_Pictures/Quad_circle_4_false_3.png,NA,NA,Is this a fractal?,NA,Fri Mar 19 2021 12:05:12 GMT+0100 (Central European Standard Time),1616151912899,28.28323333333333,key_press_second_one_comp_4,4
95,,3113,24,hi lucaaaaaaaaa,correct,Abitur / High School,1616153609893,fractal,1,NA,fractal,female,non-fractal,g,h,g,"German, Danish",NA,NA,NA,images/Generated_Pictures/Quad_circle_4.png,NA,NA,Is this a fractal?,NA,Fri Mar 19 2021 12:05:12 GMT+0100 (Central European Standard Time),1616151912899,28.28323333333333,key_press_second,1
95,,3947,24,hi lucaaaaaaaaa,correct,Abitur / High School,1616153609893,non-fractal,1,NA,fractal,female,non-fractal,g,h,h,"German, Danish",NA,NA,NA,images/Generated_Pictures/Tri_arrow_4_false_3.png,NA,NA,Is this a fractal?,NA,Fri Mar 19 2021 12:05:12 GMT+0100 (Central European Standard Time),1616151912899,28.28323333333333,key_press_second_one_comp_4,5
95,,5686,24,hi lucaaaaaaaaa,correct,Abitur / High School,1616153609893,non-fractal,1,NA,fractal,female,non-fractal,g,h,h,"German, Danish",NA,NA,NA,images/Generated_Pictures/Tri_circle_4_false_3.png,NA,NA,Is this a fractal?,NA,Fri Mar 19 2021 12:05:12 GMT+0100 (Central European Standard Time),1616151912899,28.28323333333333,key_press_second_one_comp_4,6
95,,6221,24,hi lucaaaaaaaaa,incorrect,Abitur / High School,1616153609893,non-fractal,1,NA,fractal,female,non-fractal,g,h,g,"German, Danish",NA,NA,NA,images/Generated_Pictures/Tri_square_4_false_3.png,NA,NA,Is this a fractal?,NA,Fri Mar 19 2021 12:05:12 GMT+0100 (Central European Standard Time),1616151912899,28.28323333333333,key_press_second_one_comp_4,7
95,,3814,24,hi lucaaaaaaaaa,correct,Abitur / High School,1616153609893,non-fractal,1,NA,fractal,female,non-fractal,g,h,h,"German, Danish",NA,NA,NA,images/Generated_Pictures/Quad_square_4_false_4.png,NA,NA,Is this a fractal?,NA,Fri Mar 19 2021 12:05:12 GMT+0100 (Central European Standard Time),1616151912899,28.28323333333333,key_press_second_one_comp_4,8
95,,3405,24,hi lucaaaaaaaaa,correct,Abitur / High School,1616153609893,fractal,1,NA,fractal,female,non-fractal,g,h,g,"German, Danish",NA,NA,NA,images/Generated_Pictures/Quad_triangle_4.png,NA,NA,Is this a fractal?,NA,Fri Mar 19 2021 12:05:12 GMT+0100 (Central European Standard Time),1616151912899,28.28323333333333,key_press_second,2
95,,6792,24,hi lucaaaaaaaaa,correct,Abitur / High School,1616153609893,non-fractal,1,NA,fractal,female,non-fractal,g,h,h,"German, Danish",NA,NA,NA,images/Generated_Pictures/Quad_arrow_4_false_3.png,NA,NA,Is this a fractal?,NA,Fri Mar 19 2021 12:05:12 GMT+0100 (Central European Standard Time),1616151912899,28.28323333333333,key_press_second_one_comp_4,9
95,,3555,24,hi lucaaaaaaaaa,correct,Abitur / High School,1616153609893,non-fractal,1,NA,fractal,female,non-fractal,g,h,h,"German, Danish",NA,NA,NA,images/Generated_Pictures/Tri_triangle_4_false_3.png,NA,NA,Is this a fractal?,NA,Fri Mar 19 2021 12:05:12 GMT+0100 (Central European Standard Time),1616151912899,28.28323333333333,key_press_second_one_comp_4,10
95,,2735,24,hi lucaaaaaaaaa,correct,Abitur / High School,1616153609893,non-fractal,1,NA,fractal,female,non-fractal,g,h,h,"German, Danish",NA,NA,NA,images/Generated_Pictures/Quad_arrow_4_false_4.png,NA,NA,Is this a fractal?,NA,Fri Mar 19 2021 12:05:12 GMT+0100 (Central European Standard Time),1616151912899,28.28323333333333,key_press_second_one_comp_4,11
95,,2536,24,hi lucaaaaaaaaa,correct,Abitur / High School,1616153609893,non-fractal,1,NA,fractal,female,non-fractal,g,h,h,"German, Danish",NA,NA,NA,images/Generated_Pictures/Tri_triangle_4_false_4.png,NA,NA,Is this a fractal?,NA,Fri Mar 19 2021 12:05:12 GMT+0100 (Central European Standard Time),1616151912899,28.28323333333333,key_press_second_one_comp_4,12
95,,4176,24,hi lucaaaaaaaaa,correct,Abitur / High School,1616153609893,fractal,1,NA,fractal,female,non-fractal,g,h,g,"German, Danish",NA,NA,NA,images/Generated_Pictures/Quad_circle_4.png,NA,NA,Is this a fractal?,NA,Fri Mar 19 2021 12:05:12 GMT+0100 (Central European Standard Time),1616151912899,28.28323333333333,key_press_second,3
95,,4718,24,hi lucaaaaaaaaa,correct,Abitur / High School,1616153609893,non-fractal,1,NA,fractal,female,non-fractal,g,h,h,"German, Danish",NA,NA,NA,images/Generated_Pictures/Tri_square_4_false_3.png,NA,NA,Is this a fractal?,NA,Fri Mar 19 2021 12:05:12 GMT+0100 (Central European Standard Time),1616151912899,28.28323333333333,key_press_second_one_comp_4,13
95,,4762,24,hi lucaaaaaaaaa,correct,Abitur / High School,1616153609893,non-fractal,1,NA,fractal,female,non-fractal,g,h,h,"German, Danish",NA,NA,NA,images/Generated_Pictures/Quad_square_4_false_3.png,NA,NA,Is this a fractal?,NA,Fri Mar 19 2021 12:05:12 GMT+0100 (Central European Standard Time),1616151912899,28.28323333333333,key_press_second_one_comp_4,14
95,,3403,24,hi lucaaaaaaaaa,correct,Abitur / High School,1616153609893,non-fractal,1,NA,fractal,female,non-fractal,g,h,h,"German, Danish",NA,NA,NA,images/Generated_Pictures/Quad_arrow_4_false_4.png,NA,NA,Is this a fractal?,NA,Fri Mar 19 2021 12:05:12 GMT+0100 (Central European Standard Time),1616151912899,28.28323333333333,key_press_second_one_comp_4,15
95,,3522,24,hi lucaaaaaaaaa,correct,Abitur / High School,1616153609893,non-fractal,1,NA,fractal,female,non-fractal,g,h,h,"German, Danish",NA,NA,NA,images/Generated_Pictures/Tri_arrow_4_false_4.png,NA,NA,Is this a fractal?,NA,Fri Mar 19 2021 12:05:12 GMT+0100 (Central European Standard Time),1616151912899,28.28323333333333,key_press_second_one_comp_4,16
95,,2866,24,hi lucaaaaaaaaa,correct,Abitur / High School,1616153609893,fractal,1,NA,fractal,female,non-fractal,g,h,g,"German, Danish",NA,NA,NA,images/Generated_Pictures/Tri_arrow_4.png,NA,NA,Is this a fractal?,NA,Fri Mar 19 2021 12:05:12 GMT+0100 (Central European Standard Time),1616151912899,28.28323333333333,key_press_second,4
95,,3236,24,hi lucaaaaaaaaa,correct,Abitur / High School,1616153609893,non-fractal,1,NA,fractal,female,non-fractal,g,h,h,"German, Danish",NA,NA,NA,images/Generated_Pictures/Tri_circle_4_false_4.png,NA,NA,Is this a fractal?,NA,Fri Mar 19 2021 12:05:12 GMT+0100 (Central European Standard Time),1616151912899,28.28323333333333,key_press_second_one_comp_4,17
95,,3979,24,hi lucaaaaaaaaa,correct,Abitur / High School,1616153609893,non-fractal,1,NA,fractal,female,non-fractal,g,h,h,"German, Danish",NA,NA,NA,images/Generated_Pictures/Quad_circle_4_false_3.png,NA,NA,Is this a fractal?,NA,Fri Mar 19 2021 12:05:12 GMT+0100 (Central European Standard Time),1616151912899,28.28323333333333,key_press_second_one_comp_4,18
95,,3444,24,hi lucaaaaaaaaa,correct,Abitur / High School,1616153609893,non-fractal,1,NA,fractal,female,non-fractal,g,h,h,"German, Danish",NA,NA,NA,images/Generated_Pictures/Quad_arrow_4_false_3.png,NA,NA,Is this a fractal?,NA,Fri Mar 19 2021 12:05:12 GMT+0100 (Central European Standard Time),1616151912899,28.28323333333333,key_press_second_one_comp_4,19
95,,5140,24,hi lucaaaaaaaaa,correct,Abitur / High School,1616153609893,non-fractal,1,NA,fractal,female,non-fractal,g,h,h,"German, Danish",NA,NA,NA,images/Generated_Pictures/Tri_circle_4_false_4.png,NA,NA,Is this a fractal?,NA,Fri Mar 19 2021 12:05:12 GMT+0100 (Central European Standard Time),1616151912899,28.28323333333333,key_press_second_one_comp_4,20
95,,4490,24,hi lucaaaaaaaaa,correct,Abitur / High School,1616153609893,fractal,1,NA,fractal,female,non-fractal,g,h,g,"German, Danish",NA,NA,NA,images/Generated_Pictures/Quad_arrow_4.png,NA,NA,Is this a fractal?,NA,Fri Mar 19 2021 12:05:12 GMT+0100 (Central European Standard Time),1616151912899,28.28323333333333,key_press_second,5
95,,5979,24,hi lucaaaaaaaaa,incorrect,Abitur / High School,1616153609893,non-fractal,1,NA,fractal,female,non-fractal,g,h,g,"German, Danish",NA,NA,NA,images/Generated_Pictures/Penta_square_3_false_2.png,NA,NA,Is this a fractal?,NA,Fri Mar 19 2021 12:05:12 GMT+0100 (Central European Standard Time),1616151912899,28.28323333333333,key_press_second_one_comp_3,1
95,,2798,24,hi lucaaaaaaaaa,incorrect,Abitur / High School,1616153609893,non-fractal,1,NA,fractal,female,non-fractal,g,h,g,"German, Danish",NA,NA,NA,images/Generated_Pictures/Penta_circle_3_false_2.png,NA,NA,Is this a fractal?,NA,Fri Mar 19 2021 12:05:12 GMT+0100 (Central European Standard Time),1616151912899,28.28323333333333,key_press_second_one_comp_3,2
95,,4792,24,hi lucaaaaaaaaa,incorrect,Abitur / High School,1616153609893,non-fractal,1,NA,fractal,female,non-fractal,g,h,g,"German, Danish",NA,NA,NA,images/Generated_Pictures/Hexa_arrow_3_false_3.png,NA,NA,Is this a fractal?,NA,Fri Mar 19 2021 12:05:12 GMT+0100 (Central European Standard Time),1616151912899,28.28323333333333,key_press_second_one_comp_3,3
95,,3119,24,hi lucaaaaaaaaa,correct,Abitur / High School,1616153609893,fractal,1,NA,fractal,female,non-fractal,g,h,g,"German, Danish",NA,NA,NA,images/Generated_Pictures/Penta_arrow_3.png,NA,NA,Is this a fractal?,NA,Fri Mar 19 2021 12:05:12 GMT+0100 (Central European Standard Time),1616151912899,28.28323333333333,key_press_second_two_comp_3,1
95,,3323,24,hi lucaaaaaaaaa,incorrect,Abitur / High School,1616153609893,non-fractal,1,NA,fractal,female,non-fractal,g,h,g,"German, Danish",NA,NA,NA,images/Generated_Pictures/Penta_triangle_3_false_3.png,NA,NA,Is this a fractal?,NA,Fri Mar 19 2021 12:05:12 GMT+0100 (Central European Standard Time),1616151912899,28.28323333333333,key_press_second_one_comp_3,4
95,,2675,24,hi lucaaaaaaaaa,incorrect,Abitur / High School,1616153609893,non-fractal,1,NA,fractal,female,non-fractal,g,h,g,"German, Danish",NA,NA,NA,images/Generated_Pictures/Hexa_triangle_3_false_2.png,NA,NA,Is this a fractal?,NA,Fri Mar 19 2021 12:05:12 GMT+0100 (Central European Standard Time),1616151912899,28.28323333333333,key_press_second_one_comp_3,5
95,,2295,24,hi lucaaaaaaaaa,incorrect,Abitur / High School,1616153609893,non-fractal,1,NA,fractal,female,non-fractal,g,h,g,"German, Danish",NA,NA,NA,images/Generated_Pictures/Penta_circle_3_false_2.png,NA,NA,Is this a fractal?,NA,Fri Mar 19 2021 12:05:12 GMT+0100 (Central European Standard Time),1616151912899,28.28323333333333,key_press_second_one_comp_3,6
95,,6654,24,hi lucaaaaaaaaa,correct,Abitur / High School,1616153609893,fractal,1,NA,fractal,female,non-fractal,g,h,g,"German, Danish",NA,NA,NA,images/Generated_Pictures/Quad_circle_3.png,NA,NA,Is this a fractal?,NA,Fri Mar 19 2021 12:05:12 GMT+0100 (Central European Standard Time),1616151912899,28.28323333333333,key_press_second_two_comp_3,2
95,,2284,24,hi lucaaaaaaaaa,incorrect,Abitur / High School,1616153609893,non-fractal,1,NA,fractal,female,non-fractal,g,h,g,"German, Danish",NA,NA,NA,images/Generated_Pictures/Penta_circle_3_false_3.png,NA,NA,Is this a fractal?,NA,Fri Mar 19 2021 12:05:12 GMT+0100 (Central European Standard Time),1616151912899,28.28323333333333,key_press_second_one_comp_3,7
95,,2783,24,hi lucaaaaaaaaa,incorrect,Abitur / High School,1616153609893,non-fractal,1,NA,fractal,female,non-fractal,g,h,g,"German, Danish",NA,NA,NA,images/Generated_Pictures/Hexa_square_3_false_2.png,NA,NA,Is this a fractal?,NA,Fri Mar 19 2021 12:05:12 GMT+0100 (Central European Standard Time),1616151912899,28.28323333333333,key_press_second_one_comp_3,8
95,,2290,24,hi lucaaaaaaaaa,incorrect,Abitur / High School,1616153609893,non-fractal,1,NA,fractal,female,non-fractal,g,h,g,"German, Danish",NA,NA,NA,images/Generated_Pictures/Hexa_square_3_false_3.png,NA,NA,Is this a fractal?,NA,Fri Mar 19 2021 12:05:12 GMT+0100 (Central European Standard Time),1616151912899,28.28323333333333,key_press_second_one_comp_3,9
95,,3219,24,hi lucaaaaaaaaa,correct,Abitur / High School,1616153609893,fractal,1,NA,fractal,female,non-fractal,g,h,g,"German, Danish",NA,NA,NA,images/Generated_Pictures/Quad_arrow_3.png,NA,NA,Is this a fractal?,NA,Fri Mar 19 2021 12:05:12 GMT+0100 (Central European Standard Time),1616151912899,28.28323333333333,key_press_second_two_comp_3,3
95,,2474,24,hi lucaaaaaaaaa,incorrect,Abitur / High School,1616153609893,non-fractal,1,NA,fractal,female,non-fractal,g,h,g,"German, Danish",NA,NA,NA,images/Generated_Pictures/Hexa_circle_3_false_3.png,NA,NA,Is this a fractal?,NA,Fri Mar 19 2021 12:05:12 GMT+0100 (Central European Standard Time),1616151912899,28.28323333333333,key_press_second_one_comp_3,10
95,,2983,24,hi lucaaaaaaaaa,incorrect,Abitur / High School,1616153609893,non-fractal,1,NA,fractal,female,non-fractal,g,h,g,"German, Danish",NA,NA,NA,images/Generated_Pictures/Penta_arrow_3_false_3.png,NA,NA,Is this a fractal?,NA,Fri Mar 19 2021 12:05:12 GMT+0100 (Central European Standard Time),1616151912899,28.28323333333333,key_press_second_one_comp_3,11
95,,2488,24,hi lucaaaaaaaaa,incorrect,Abitur / High School,1616153609893,non-fractal,1,NA,fractal,female,non-fractal,g,h,g,"German, Danish",NA,NA,NA,images/Generated_Pictures/Hexa_circle_3_false_3.png,NA,NA,Is this a fractal?,NA,Fri Mar 19 2021 12:05:12 GMT+0100 (Central European Standard Time),1616151912899,28.28323333333333,key_press_second_one_comp_3,12
95,,4681,24,hi lucaaaaaaaaa,correct,Abitur / High School,1616153609893,fractal,1,NA,fractal,female,non-fractal,g,h,g,"German, Danish",NA,NA,NA,images/Generated_Pictures/Tri_triangle_3.png,NA,NA,Is this a fractal?,NA,Fri Mar 19 2021 12:05:12 GMT+0100 (Central European Standard Time),1616151912899,28.28323333333333,key_press_second_two_comp_3,4
95,,4378,24,hi lucaaaaaaaaa,incorrect,Abitur / High School,1616153609893,non-fractal,1,NA,fractal,female,non-fractal,g,h,g,"German, Danish",NA,NA,NA,images/Generated_Pictures/Penta_triangle_3_false_2.png,NA,NA,Is this a fractal?,NA,Fri Mar 19 2021 12:05:12 GMT+0100 (Central European Standard Time),1616151912899,28.28323333333333,key_press_second_one_comp_3,13
95,,2820,24,hi lucaaaaaaaaa,incorrect,Abitur / High School,1616153609893,non-fractal,1,NA,fractal,female,non-fractal,g,h,g,"German, Danish",NA,NA,NA,images/Generated_Pictures/Hexa_arrow_3_false_3.png,NA,NA,Is this a fractal?,NA,Fri Mar 19 2021 12:05:12 GMT+0100 (Central European Standard Time),1616151912899,28.28323333333333,key_press_second_one_comp_3,14
95,,3202,24,hi lucaaaaaaaaa,incorrect,Abitur / High School,1616153609893,non-fractal,1,NA,fractal,female,non-fractal,g,h,g,"German, Danish",NA,NA,NA,images/Generated_Pictures/Hexa_circle_3_false_3.png,NA,NA,Is this a fractal?,NA,Fri Mar 19 2021 12:05:12 GMT+0100 (Central European Standard Time),1616151912899,28.28323333333333,key_press_second_one_comp_3,15
95,,2523,24,hi lucaaaaaaaaa,correct,Abitur / High School,1616153609893,fractal,1,NA,fractal,female,non-fractal,g,h,g,"German, Danish",NA,NA,NA,images/Generated_Pictures/Tri_square_3.png,NA,NA,Is this a fractal?,NA,Fri Mar 19 2021 12:05:12 GMT+0100 (Central European Standard Time),1616151912899,28.28323333333333,key_press_second_two_comp_3,5
